name,rt,error,correct_key,trial,pair1,pair2,trial_types
1,1.651323,0,2,76,4,10,1
1,2.245259,0,2,129,3,4,5
1,1.589527,0,3,83,4,12,4
1,0.65146,0,2,9,1,11,2
1,2.065465,0,2,40,2,10,2
1,1.180201,1,2,124,3,4,5
1,1.437887,0,1,26,2,9,8
1,3.737429,0,1,115,2,1,5
1,0.798974,0,2,70,3,12,1
1,1.190286,0,2,118,2,1,6
1,1.401841,0,1,29,2,10,8
1,1.129516,0,2,58,3,12,8
1,1.509362,1,1,43,2,11,8
1,1.273106,0,1,122,3,4,6
1,1.221298,0,1,2,1,9,8
1,1.46101,0,3,11,1,12,3
1,1.362873,0,1,51,3,9,2
1,1.13669,0,3,56,3,11,4
1,1.404094,0,3,132,3,4,7
1,1.819291,1,2,61,3,9,8
1,1.520923,0,3,42,2,10,4
1,0.837484,0,2,142,4,3,5
1,1.436151,0,3,71,3,12,3
1,1.721798,0,3,96,4,12,4
1,1.188457,0,3,92,4,11,3
1,1.557096,0,3,23,1,12,4
1,1.443099,0,2,130,3,4,5
1,1.405042,0,2,133,4,3,5
1,0.997947,0,2,109,2,1,6
1,1.220604,0,3,128,3,4,7
1,1.066278,1,1,139,4,3,6
1,1.279813,1,2,100,1,2,6
1,2.159763,0,2,141,4,3,5
1,1.056807,0,3,104,1,2,7
1,1.135901,1,2,121,3,4,5
1,1.052349,0,3,44,2,11,3
1,23.646304,0,2,4,1,10,2
1,1.001067,0,3,108,1,2,7
1,0.856407,0,3,24,1,12,3
1,1.805254,0,1,27,2,9,1
1,2.366362,0,2,117,2,1,6
1,1.449742,0,1,17,1,10,1
1,1.453568,0,1,125,3,4,6
1,1.238496,0,3,102,1,2,7
1,1.149741,0,3,59,3,12,4
1,1.53498,0,3,36,2,12,4
1,1.557666,0,2,93,4,11,1
1,1.320949,0,1,19,1,11,8
1,1.284426,0,3,47,2,12,4
1,1.490156,0,1,87,4,9,2
1,1.557671,0,3,30,2,10,3
1,1.060185,0,1,15,1,9,8
1,1.177626,0,2,82,4,12,8
1,1.145368,0,1,39,2,9,8
1,1.924207,0,3,35,2,12,3
1,1.574127,0,1,14,1,9,1
1,1.016133,0,2,13,1,9,2
1,1.059362,0,1,31,2,11,1
1,0.896409,0,3,32,2,11,4
1,1.885857,0,1,62,3,9,2
1,1.41787,0,2,46,2,12,2
1,1.24014,0,2,25,2,9,2
1,0.935091,0,2,16,1,10,2
1,2.120162,0,3,78,4,10,3
1,1.036454,0,2,45,2,11,2
1,0.960967,0,1,75,4,9,2
1,1.069143,0,3,68,3,11,3
1,1.881789,0,2,28,2,10,2
1,1.631647,0,3,131,3,4,7
1,2.106678,0,3,18,1,10,4
1,1.398475,1,1,134,4,3,6
1,1.26308,0,3,140,4,3,7
1,1.501273,0,3,144,4,3,7
1,1.728416,0,3,54,3,10,3
1,1.088774,0,1,111,2,1,5
1,1.252238,0,3,107,1,2,7
1,1.235262,0,3,6,1,10,3
1,1.362943,0,1,123,3,4,6
1,1.519988,0,2,97,1,2,6
1,0.884118,0,2,69,3,11,1
1,0.879932,0,2,52,3,10,1
1,1.262228,1,1,55,3,11,2
1,0.907443,0,3,90,4,10,4
1,1.191387,0,1,113,2,1,5
1,1.311581,0,3,119,2,1,7
1,1.089751,0,3,72,3,12,4
1,0.974781,0,3,8,1,11,4
1,1.151211,0,2,34,2,12,2
1,1.948198,1,1,110,2,1,5
1,0.815434,0,2,37,2,9,2
1,1.161645,0,3,80,4,11,4
1,1.178717,0,3,138,4,3,7
1,1.074545,1,2,10,1,12,2
1,1.340248,0,1,101,1,2,5
1,1.127304,0,3,120,2,1,7
1,0.915116,0,2,81,4,11,8
1,1.517738,0,2,22,1,12,2
1,1.447915,1,3,126,3,4,7
1,1.966902,0,1,65,3,10,2
1,1.046304,0,3,12,1,12,4
1,1.82889,0,3,66,3,10,4
1,1.160178,0,3,84,4,12,3
1,1.401877,0,1,135,4,3,6
1,1.807309,0,2,85,4,9,8
1,1.576063,0,1,89,4,10,2
1,1.449073,0,1,5,1,10,8
1,1.408394,0,2,88,4,10,8
1,1.211836,0,3,114,2,1,7
1,1.298862,0,3,143,4,3,7
1,1.358309,0,3,48,2,12,3
1,1.175962,0,3,60,3,12,3
1,0.946478,0,1,38,2,9,1
1,1.309327,0,2,73,4,9,1
1,0.93164,0,1,41,2,10,1
1,1.099874,0,2,21,1,11,2
1,1.238268,0,2,1,1,9,2
1,0.880825,0,1,77,4,10,2
1,0.915129,0,1,98,1,2,5
1,1.260459,0,2,106,1,2,6
1,2.049151,1,3,95,4,12,3
1,1.261143,0,2,57,3,11,8
1,1.170087,0,3,116,2,1,7
1,1.082407,0,1,103,1,2,5
1,1.6533,1,1,50,3,9,2
1,1.126704,0,2,94,4,12,1
1,1.061738,0,2,112,2,1,6
1,1.097678,0,1,3,1,9,1
1,1.11967,0,1,53,3,10,2
1,1.30637,0,1,63,3,9,2
1,1.236899,1,2,64,3,10,8
1,1.146328,0,2,33,2,11,2
1,0.772675,0,1,86,4,9,2
1,1.530655,0,2,105,1,2,6
1,0.940334,1,1,127,3,4,6
1,0.869528,0,1,7,1,11,1
1,1.044217,0,2,49,3,9,1
1,1.359774,1,1,79,4,11,2
1,0.929948,0,1,74,4,9,2
1,1.15626,0,3,20,1,11,3
1,0.913302,0,2,136,4,3,5
1,1.440706,0,1,91,4,11,2
1,2.364545,1,1,137,4,3,6
1,0.992373,0,1,67,3,11,2
1,1.104402,0,1,99,1,2,5
1,1.754743,0,2,21,1,11,2
1,0.786072,0,1,87,4,9,2
1,1.088231,0,2,124,3,4,5
1,0.98183,0,3,140,4,3,7
1,0.882981,0,3,44,2,11,3
1,1.15179,0,2,81,4,11,8
1,0.945431,0,1,39,2,9,8
1,1.018979,0,3,132,3,4,7
1,1.488612,0,1,17,1,10,1
1,0.999326,0,1,53,3,10,2
1,1.384883,0,2,94,4,12,1
1,1.080721,0,3,6,1,10,3
1,1.273006,0,2,105,1,2,6
1,1.273708,0,3,56,3,11,4
1,2.348337,1,1,67,3,11,2
1,1.368292,0,2,1,1,9,2
1,0.801493,0,3,32,2,11,4
1,1.384268,0,1,74,4,9,2
1,1.111867,0,2,64,3,10,8
1,0.987451,0,2,28,2,10,2
1,1.148314,0,3,120,2,1,7
1,1.412096,0,1,41,2,10,1
1,1.066475,0,3,78,4,10,3
1,1.567487,1,1,79,4,11,2
1,1.201405,0,1,134,4,3,6
1,1.079068,1,2,85,4,9,8
1,1.403508,0,1,115,2,1,5
1,1.055011,0,1,2,1,9,8
1,1.244148,0,2,82,4,12,8
1,0.946818,0,3,36,2,12,4
1,1.259632,0,2,4,1,10,2
1,1.369102,0,1,89,4,10,2
1,1.209394,1,1,99,1,2,5
1,1.215348,1,1,26,2,9,8
1,1.366092,0,1,122,3,4,6
1,0.845513,0,1,62,3,9,2
1,1.096451,0,2,73,4,9,1
1,0.820797,0,1,103,1,2,5
1,1.086949,1,2,40,2,10,2
1,1.188636,0,3,48,2,12,3
1,1.276656,0,3,35,2,12,3
1,0.612922,0,2,49,3,9,1
1,1.043363,0,2,141,4,3,5
1,1.12661,0,3,20,1,11,3
1,1.536974,0,1,55,3,11,2
1,1.827994,0,3,108,1,2,7
1,2.393139,0,1,63,3,9,2
1,1.625181,0,2,9,1,11,2
1,0.722561,0,2,117,2,1,6
1,1.132543,0,3,102,1,2,7
1,1.272008,0,3,60,3,12,3
1,1.349633,0,3,18,1,10,4
1,1.081784,0,1,86,4,9,2
1,1.434809,0,3,131,3,4,7
1,2.144969,0,1,5,1,10,8
1,1.013168,0,2,25,2,9,2
1,1.960196,0,3,24,1,12,3
1,0.918081,1,1,123,3,4,6
1,0.73264,0,1,75,4,9,2
1,0.887718,0,1,43,2,11,8
1,0.791431,0,2,45,2,11,2
1,0.755584,0,2,22,1,12,2
1,1.170205,0,2,16,1,10,2
1,1.456858,0,3,126,3,4,7
1,0.951039,1,3,8,1,11,4
1,1.284169,0,2,93,4,11,1
1,2.263785,0,3,96,4,12,4
1,0.878732,0,2,121,3,4,5
1,0.62905,0,1,15,1,9,8
1,0.986953,0,3,84,4,12,3
1,1.281913,0,2,109,2,1,6
1,0.925481,0,1,38,2,9,1
1,1.14991,0,1,127,3,4,6
1,1.076081,0,3,114,2,1,7
1,1.088587,0,1,77,4,10,2
1,1.434819,0,2,133,4,3,5
1,0.62148,0,2,100,1,2,6
1,0.803665,1,2,58,3,12,8
1,0.777189,0,2,130,3,4,5
1,0.832363,0,1,101,1,2,5
1,1.675887,0,2,106,1,2,6
1,1.401905,1,1,14,1,9,1
1,1.687048,0,2,142,4,3,5
1,0.708479,0,1,135,4,3,6
1,1.054356,0,2,61,3,9,8
1,0.983949,0,1,27,2,9,1
1,0.812471,0,2,33,2,11,2
1,0.941661,0,1,31,2,11,1
1,1.5904,1,3,116,2,1,7
1,0.85942,0,2,70,3,12,1
1,1.552838,0,2,46,2,12,2
1,1.173853,0,1,113,2,1,5
1,1.379513,1,1,51,3,9,2
1,1.058156,0,2,136,4,3,5
1,1.080253,0,1,29,2,10,8
1,1.555384,0,1,125,3,4,6
1,1.45319,1,1,110,2,1,5
1,1.174895,0,1,3,1,9,1
1,2.165461,1,3,59,3,12,4
1,0.990921,0,2,118,2,1,6
1,1.159095,0,2,34,2,12,2
1,1.573198,1,1,50,3,9,2
1,1.119725,0,3,104,1,2,7
1,1.323856,0,1,137,4,3,6
1,1.663622,1,3,143,4,3,7
1,1.653066,1,3,95,4,12,3
1,0.701056,0,2,112,2,1,6
1,0.770655,0,2,129,3,4,5
1,0.987278,0,1,111,2,1,5
1,1.40143,0,3,42,2,10,4
1,1.909284,1,3,138,4,3,7
1,1.257367,1,3,71,3,12,3
1,1.470964,1,1,98,1,2,5
1,1.113677,0,2,76,4,10,1
1,1.176091,0,2,97,1,2,6
1,0.92265,0,1,7,1,11,1
1,1.102523,0,1,65,3,10,2
1,1.211246,0,1,19,1,11,8
1,0.759984,0,2,13,1,9,2
1,1.188768,0,3,47,2,12,4
1,1.421119,0,3,128,3,4,7
1,1.676131,0,3,72,3,12,4
1,0.901574,0,2,10,1,12,2
1,1.204727,0,1,91,4,11,2
1,1.535715,0,3,92,4,11,3
1,3.665684,0,3,144,4,3,7
1,1.822927,1,3,107,1,2,7
1,1.254668,0,3,119,2,1,7
1,1.079927,0,3,80,4,11,4
1,1.180788,0,3,12,1,12,4
1,1.036694,0,3,90,4,10,4
1,0.783676,0,2,52,3,10,1
1,1.341324,0,3,30,2,10,3
1,1.143324,0,2,57,3,11,8
1,0.978715,0,3,23,1,12,4
1,0.858701,0,3,11,1,12,3
1,0.87257,0,3,54,3,10,3
1,1.254066,0,3,68,3,11,3
1,1.091131,0,3,66,3,10,4
1,0.819905,0,2,69,3,11,1
1,1.009203,0,2,88,4,10,8
1,1.140556,0,1,139,4,3,6
1,1.623113,0,2,37,2,9,2
1,1.859156,0,3,83,4,12,4
1,1.255075,0,2,136,4,3,5
1,0.896456,0,1,7,1,11,1
1,1.443882,1,2,118,2,1,6
1,1.252673,0,2,73,4,9,1
1,0.965241,0,3,96,4,12,4
1,1.172061,1,1,115,2,1,5
1,1.305891,0,3,60,3,12,3
1,1.133599,0,3,119,2,1,7
1,0.800613,0,2,129,3,4,5
1,0.666915,0,1,87,4,9,2
1,0.775959,0,1,51,3,9,2
1,0.801092,0,1,134,4,3,6
1,1.246058,0,2,10,1,12,2
1,0.939447,0,1,123,3,4,6
1,1.392435,0,1,135,4,3,6
1,1.362256,0,3,48,2,12,3
1,1.043079,0,1,111,2,1,5
1,1.375289,0,1,41,2,10,1
1,1.18431,0,1,62,3,9,2
1,0.923197,0,2,4,1,10,2
1,0.774751,0,1,79,4,11,2
1,1.071926,0,3,114,2,1,7
1,1.356583,0,3,102,1,2,7
1,0.884116,0,1,75,4,9,2
1,0.871368,0,2,33,2,11,2
1,0.977373,1,2,52,3,10,1
1,0.832209,0,1,27,2,9,1
1,1.384663,0,1,29,2,10,8
1,1.017103,0,2,81,4,11,8
1,1.112188,0,1,31,2,11,1
1,1.14541,0,1,19,1,11,8
1,1.027212,0,1,5,1,10,8
1,1.050268,0,1,63,3,9,2
1,0.860143,0,1,103,1,2,5
1,0.767955,0,1,2,1,9,8
1,1.649859,0,3,95,4,12,3
1,0.935839,0,3,32,2,11,4
1,1.362463,0,2,28,2,10,2
1,0.770625,0,2,76,4,10,1
1,1.030994,0,3,23,1,12,4
1,1.093369,1,2,88,4,10,8
1,1.177486,1,3,138,4,3,7
1,1.162487,0,2,82,4,12,8
1,0.917552,0,1,17,1,10,1
1,0.936114,0,2,100,1,2,6
1,3.974177,1,2,69,3,11,1
1,1.080102,0,3,128,3,4,7
1,0.822552,0,2,34,2,12,2
1,1.865964,0,3,42,2,10,4
1,1.591906,0,3,90,4,10,4
1,0.896459,0,2,117,2,1,6
1,0.679111,0,1,101,1,2,5
1,0.958068,0,3,24,1,12,3
1,0.823637,0,3,72,3,12,4
1,1.487515,0,1,74,4,9,2
1,1.419354,0,2,85,4,9,8
1,1.235052,0,2,21,1,11,2
1,1.378025,0,3,144,4,3,7
1,1.226964,0,2,109,2,1,6
1,0.693048,0,2,49,3,9,1
1,1.175811,1,1,67,3,11,2
1,0.837467,0,2,16,1,10,2
1,0.689115,0,2,93,4,11,1
1,1.620879,0,3,126,3,4,7
1,1.251392,0,3,120,2,1,7
1,1.121266,1,1,15,1,9,8
1,0.652647,0,2,22,1,12,2
1,0.642634,1,3,107,1,2,7
1,0.864589,0,3,92,4,11,3
1,1.278401,0,3,6,1,10,3
1,0.895055,1,2,124,3,4,5
1,0.992897,0,3,54,3,10,3
1,1.344959,0,1,39,2,9,8
1,1.448363,0,1,55,3,11,2
1,0.557362,0,2,121,3,4,5
1,1.017095,0,2,40,2,10,2
1,1.120812,0,2,70,3,12,1
1,0.84424,1,1,89,4,10,2
1,0.930578,0,2,45,2,11,2
1,0.877369,0,2,1,1,9,2
1,4.881536,0,3,78,4,10,3
1,1.110009,0,1,65,3,10,2
1,1.116794,0,1,53,3,10,2
1,0.859315,0,2,112,2,1,6
1,1.1874,0,3,131,3,4,7
1,1.299014,0,3,30,2,10,3
1,1.543442,0,2,57,3,11,8
1,0.808347,0,2,64,3,10,8
1,0.706717,0,1,38,2,9,1
1,1.084828,0,2,105,1,2,6
1,0.878096,0,1,122,3,4,6
1,1.083564,0,1,77,4,10,2
1,0.976958,0,3,56,3,11,4
1,1.16924,0,3,80,4,11,4
1,0.835613,0,1,137,4,3,6
1,1.527549,0,1,110,2,1,5
1,1.213914,0,2,58,3,12,8
1,2.773731,1,2,9,1,11,2
1,0.766399,0,2,13,1,9,2
1,0.930815,0,1,125,3,4,6
1,0.981428,0,3,132,3,4,7
1,0.824658,0,2,46,2,12,2
1,0.766727,0,1,127,3,4,6
1,1.059463,0,3,104,1,2,7
1,1.073387,1,3,47,2,12,4
1,1.11788,0,3,8,1,11,4
1,1.169278,0,1,86,4,9,2
1,1.020307,0,3,36,2,12,4
1,1.06225,0,3,71,3,12,3
1,0.764566,0,2,25,2,9,2
1,0.681651,0,2,133,4,3,5
1,0.938369,0,1,91,4,11,2
1,0.780537,0,3,108,1,2,7
1,1.036906,0,3,83,4,12,4
1,0.92225,0,3,12,1,12,4
1,0.958577,0,3,44,2,11,3
1,1.326933,1,3,84,4,12,3
1,1.361868,0,3,66,3,10,4
1,1.219401,0,3,59,3,12,4
1,0.963733,0,3,68,3,11,3
1,0.74631,0,2,130,3,4,5
1,0.855791,0,1,99,1,2,5
1,0.700565,0,1,43,2,11,8
1,1.224275,1,3,20,1,11,3
1,0.631151,1,3,116,2,1,7
1,1.366456,1,2,106,1,2,6
1,1.062253,1,1,113,2,1,5
1,2.979114,0,1,98,1,2,5
1,0.879526,0,1,139,4,3,6
1,0.898822,0,2,141,4,3,5
1,0.844634,1,1,50,3,9,2
1,1.459542,0,2,37,2,9,2
1,0.914862,0,3,143,4,3,7
1,0.853909,0,3,35,2,12,3
1,0.803235,0,1,14,1,9,1
1,1.043156,0,3,18,1,10,4
1,0.975136,0,2,94,4,12,1
1,0.719655,0,2,142,4,3,5
1,1.25246,1,3,140,4,3,7
1,1.194709,0,3,11,1,12,3
1,0.62807,0,2,97,1,2,6
1,1.549775,0,1,26,2,9,8
1,0.664524,0,2,61,3,9,8
1,0.849048,0,1,3,1,9,1
1,1.479234,0,2,81,4,11,8
1,0.835898,0,1,127,3,4,6
1,0.518279,0,2,142,4,3,5
1,1.683602,1,3,60,3,12,3
1,0.654249,0,2,13,1,9,2
1,0.975656,0,2,40,2,10,2
1,0.737199,0,2,109,2,1,6
1,0.754379,0,2,28,2,10,2
1,1.218655,0,1,15,1,9,8
1,1.626214,0,3,126,3,4,7
1,0.805817,0,2,25,2,9,2
1,0.864741,0,3,20,1,11,3
1,0.802093,0,2,45,2,11,2
1,0.978381,0,3,108,1,2,7
1,1.091184,0,3,47,2,12,4
1,1.063543,0,3,96,4,12,4
1,0.93275,0,3,44,2,11,3
1,0.846175,0,2,106,1,2,6
1,0.860323,0,3,71,3,12,3
1,0.546703,0,2,49,3,9,1
1,0.792289,1,1,65,3,10,2
1,1.11552,0,2,1,1,9,2
1,1.030959,0,3,66,3,10,4
1,0.821194,0,3,138,4,3,7
1,0.820121,0,3,54,3,10,3
1,0.755812,0,3,6,1,10,3
1,1.059078,0,1,137,4,3,6
1,1.188916,0,1,99,1,2,5
1,0.83263,0,3,12,1,12,4
1,0.705808,0,2,118,2,1,6
1,0.78973,0,3,56,3,11,4
1,1.063669,0,2,76,4,10,1
1,1.066755,0,1,75,4,9,2
1,0.706922,0,3,80,4,11,4
1,0.950189,0,1,87,4,9,2
1,1.257452,0,1,27,2,9,1
1,0.642737,0,2,105,1,2,6
1,1.278284,0,3,35,2,12,3
1,0.600679,0,2,69,3,11,1
1,1.085556,0,3,59,3,12,4
1,1.300583,0,1,41,2,10,1
1,1.038813,0,1,5,1,10,8
1,0.771718,0,1,3,1,9,1
1,0.941882,0,3,132,3,4,7
1,0.991659,0,3,30,2,10,3
1,1.095568,0,1,26,2,9,8
1,1.181216,0,1,77,4,10,2
1,0.844644,0,3,120,2,1,7
1,0.650117,0,3,24,1,12,3
1,1.024429,0,3,102,1,2,7
1,1.302825,0,2,22,1,12,2
1,1.060151,0,2,117,2,1,6
1,0.613558,0,1,115,2,1,5
1,0.66969,0,2,100,1,2,6
1,0.53637,0,2,94,4,12,1
1,0.842659,0,3,114,2,1,7
1,0.832725,0,3,131,3,4,7
1,0.814485,1,1,43,2,11,8
1,0.797852,0,2,88,4,10,8
1,0.806617,0,2,34,2,12,2
1,0.740586,0,2,16,1,10,2
1,0.79382,0,1,55,3,11,2
1,1.233951,0,1,86,4,9,2
1,0.817308,0,3,84,4,12,3
1,0.663504,0,2,130,3,4,5
1,0.700435,0,1,79,4,11,2
1,0.720415,0,3,42,2,10,4
1,1.28402,0,1,110,2,1,5
1,0.766159,0,2,58,3,12,8
1,1.795154,0,1,101,1,2,5
1,0.743971,0,1,139,4,3,6
1,0.958469,0,2,37,2,9,2
1,0.901866,0,3,104,1,2,7
1,0.866358,0,1,67,3,11,2
1,0.976142,0,3,128,3,4,7
1,0.637917,0,1,98,1,2,5
1,1.85854,0,2,64,3,10,8
1,1.230154,1,3,140,4,3,7
1,0.893473,0,3,48,2,12,3
1,1.089408,0,1,29,2,10,8
1,1.457346,0,2,52,3,10,1
1,0.800298,0,1,53,3,10,2
1,0.950572,0,3,8,1,11,4
1,0.822356,0,3,68,3,11,3
1,0.910649,0,3,107,1,2,7
1,0.863815,0,2,121,3,4,5
1,0.741126,0,2,93,4,11,1
1,0.698351,0,2,129,3,4,5
1,0.662828,0,2,112,2,1,6
1,0.880025,0,1,111,2,1,5
1,0.751902,0,1,74,4,9,2
1,0.632565,0,2,70,3,12,1
1,1.493954,0,2,46,2,12,2
1,1.233959,0,3,18,1,10,4
1,0.946992,0,1,89,4,10,2
1,0.861271,0,1,51,3,9,2
1,0.784572,0,1,17,1,10,1
1,0.740927,0,2,61,3,9,8
1,0.804442,0,3,95,4,12,3
1,0.76615,0,2,33,2,11,2
1,1.175235,0,2,82,4,12,8
1,0.887653,0,1,91,4,11,2
1,0.987606,0,3,11,1,12,3
1,0.642988,0,2,124,3,4,5
1,1.17172,0,1,113,2,1,5
1,0.973242,0,3,143,4,3,7
1,1.164641,0,3,116,2,1,7
1,0.732232,0,2,133,4,3,5
1,1.096435,1,1,122,3,4,6
1,0.874391,0,1,50,3,9,2
1,0.608555,0,2,136,4,3,5
1,0.860415,0,3,119,2,1,7
1,1.397712,0,1,7,1,11,1
1,0.811797,0,3,144,4,3,7
1,0.865441,0,1,103,1,2,5
1,0.805978,0,2,97,1,2,6
1,1.814611,1,2,10,1,12,2
1,0.645651,0,2,4,1,10,2
1,1.233663,1,1,135,4,3,6
1,1.044116,0,3,78,4,10,3
1,1.011608,0,1,38,2,9,1
1,0.980828,0,3,23,1,12,4
1,1.290053,0,1,39,2,9,8
1,0.817882,0,1,125,3,4,6
1,1.081752,0,1,62,3,9,2
1,0.677954,0,2,85,4,9,8
1,1.114324,0,3,92,4,11,3
1,0.711006,0,2,141,4,3,5
1,1.144482,0,1,31,2,11,1
1,1.730114,0,1,2,1,9,8
1,1.164706,0,3,90,4,10,4
1,0.950544,0,1,14,1,9,1
1,0.967786,0,3,36,2,12,4
1,1.104047,1,1,134,4,3,6
1,0.949664,0,2,57,3,11,8
1,1.06957,0,2,9,1,11,2
1,0.731073,0,1,63,3,9,2
1,0.917687,0,1,123,3,4,6
1,1.155895,0,3,83,4,12,4
1,0.998089,0,3,72,3,12,4
1,1.148588,0,2,73,4,9,1
1,1.031673,0,2,21,1,11,2
1,1.613707,0,3,32,2,11,4
1,1.460537,0,1,19,1,11,8
2,1.097914,0,1,135,4,3,6
2,1.448311,1,3,108,1,2,7
2,1.372439,0,1,123,3,4,6
2,1.835669,0,2,118,2,1,6
2,1.248493,0,1,115,2,1,5
2,1.051482,0,1,136,4,3,6
2,1.120202,0,2,69,3,11,8
2,1.299063,1,3,89,4,10,4
2,1.198211,1,2,11,1,12,2
2,1.297474,0,1,139,4,3,6
2,1.445348,0,1,39,2,9,1
2,1.133268,0,1,127,3,4,6
2,1.262291,0,3,12,1,12,4
2,1.786739,0,1,18,1,10,8
2,1.36318,0,3,24,1,12,3
2,1.623132,0,2,95,4,12,1
2,1.246179,0,1,27,2,9,8
2,1.300035,0,3,2,1,9,4
2,1.855765,1,3,5,1,10,3
2,1.625442,1,1,64,3,10,2
2,0.979206,0,2,109,2,1,6
2,1.988117,0,2,70,3,12,1
2,1.140182,0,1,102,1,2,5
2,1.558636,0,2,45,2,11,2
2,1.548603,0,3,134,4,3,7
2,1.390416,1,2,9,1,11,2
2,1.638766,0,3,50,3,9,3
2,1.668756,0,3,128,3,4,7
2,1.849958,0,2,47,2,12,2
2,1.503266,0,3,116,2,1,7
2,1.546245,0,2,22,1,12,2
2,1.887317,1,1,124,3,4,6
2,1.749569,0,3,74,4,9,3
2,1.144579,0,2,21,1,11,2
2,1.231323,0,1,19,1,11,1
2,1.34547,0,3,53,3,10,3
2,0.961576,0,2,49,3,9,1
2,1.66331,0,1,91,4,11,2
2,1.238502,1,1,75,4,9,2
2,1.173577,0,3,32,2,11,3
2,1.053103,0,1,103,1,2,5
2,0.910798,0,1,79,4,11,2
2,1.620993,0,2,23,1,12,2
2,1.183693,0,1,88,4,10,2
2,1.953804,1,2,143,4,3,5
2,1.002229,0,2,129,3,4,5
2,1.21511,0,3,8,1,11,3
2,1.234137,0,2,71,3,12,1
2,1.018783,0,2,133,4,3,5
2,1.083004,0,2,93,4,11,8
2,1.385848,1,1,78,4,10,2
2,1.278668,0,3,77,4,10,3
2,0.946211,0,1,30,2,10,1
2,1.444047,0,3,62,3,9,4
2,1.423849,0,1,126,3,4,6
2,0.838966,0,1,54,3,10,2
2,1.277113,0,3,72,3,12,3
2,1.163866,0,2,10,1,12,2
2,1.122772,0,3,86,4,9,4
2,2.291455,1,2,37,2,9,2
2,1.09758,0,1,43,2,11,1
2,1.181263,0,2,73,4,9,1
2,1.512299,0,3,104,1,2,7
2,0.842514,0,2,58,3,12,8
2,1.265764,0,1,99,1,2,5
2,1.677733,1,2,33,2,11,2
2,1.420943,1,2,106,1,2,6
2,2.405176,0,3,80,4,11,4
2,1.3053,0,1,4,1,10,1
2,0.959985,1,3,144,4,3,7
2,1.257041,0,1,90,4,10,2
2,2.181765,1,2,13,1,9,2
2,1.734545,0,3,44,2,11,4
2,1.265146,0,1,66,3,10,2
2,0.800834,0,2,46,2,12,2
2,1.143643,0,1,51,3,9,2
2,2.479417,0,2,81,4,11,1
2,1.167698,0,3,14,1,9,3
2,1.176643,0,2,85,4,9,8
2,1.102238,0,2,57,3,11,1
2,1.583873,0,2,105,1,2,6
2,1.043303,0,2,82,4,12,8
2,1.341124,0,1,63,3,9,2
2,1.298227,0,2,131,3,4,5
2,1.291834,1,2,121,3,4,5
2,1.211757,0,3,29,2,10,3
2,2.208719,0,1,114,2,1,5
2,1.23721,0,2,61,3,9,8
2,1.195797,1,3,96,4,12,3
2,1.558894,0,1,111,2,1,5
2,1.361432,0,3,56,3,11,4
2,1.066358,0,3,65,3,10,4
2,2.566208,0,2,25,2,9,2
2,1.147331,0,2,142,4,3,5
2,1.301581,0,1,100,1,2,5
2,1.557633,0,1,138,4,3,6
2,1.178701,0,3,20,1,11,4
2,1.643548,0,1,40,2,10,8
2,1.400904,0,1,3,1,9,8
2,1.024328,0,3,98,1,2,7
2,1.181643,0,3,48,2,12,3
2,1.5419,0,2,59,3,12,8
2,1.008069,0,3,41,2,10,4
2,1.75567,1,2,1,1,9,2
2,0.847107,0,1,76,4,10,2
2,1.028009,0,2,35,2,12,2
2,1.348947,0,1,15,1,9,1
2,1.22092,0,3,60,3,12,4
2,1.131439,0,1,42,2,10,8
2,1.306793,0,2,130,3,4,5
2,0.996436,0,3,140,4,3,7
2,1.987291,0,2,107,1,2,6
2,0.975487,1,3,84,4,12,4
2,0.599479,0,2,34,2,12,2
2,1.457143,0,1,6,1,10,1
2,1.601371,1,1,31,2,11,8
2,1.353172,0,2,119,2,1,6
2,1.626927,0,1,7,1,11,8
2,1.233627,0,3,120,2,1,7
2,1.452021,0,1,28,2,10,1
2,1.004388,0,1,87,4,9,2
2,1.183222,0,2,94,4,12,1
2,1.265575,1,2,97,1,2,6
2,1.562012,0,3,137,4,3,7
2,1.042916,0,3,110,2,1,7
2,1.000555,0,3,125,3,4,7
2,2.192121,0,1,55,3,11,2
2,1.12005,0,3,36,2,12,4
2,1.130985,0,3,122,3,4,7
2,0.893243,0,3,101,1,2,7
2,1.032703,0,3,68,3,11,3
2,0.712243,0,2,141,4,3,5
2,1.776482,0,2,83,4,12,8
2,1.593134,0,3,38,2,9,3
2,1.29637,0,3,132,3,4,7
2,1.653887,0,1,112,2,1,5
2,0.877619,0,1,16,1,10,8
2,1.379086,0,1,67,3,11,2
2,1.084362,0,3,113,2,1,7
2,1.536373,1,3,26,2,9,4
2,1.004822,0,2,117,2,1,6
2,1.399888,0,3,92,4,11,3
2,1.18286,0,3,17,1,10,4
2,1.647828,0,1,52,3,10,2
2,1.320976,1,2,49,3,9,1
2,1.349587,0,3,134,4,3,7
2,1.022571,0,3,128,3,4,7
2,0.807048,0,1,102,1,2,5
2,1.313664,0,1,112,2,1,5
2,0.904499,1,2,143,4,3,5
2,1.50974,0,3,8,1,11,3
2,1.008547,0,2,46,2,12,2
2,1.354891,0,1,15,1,9,1
2,1.184679,0,3,65,3,10,4
2,1.931083,0,2,37,2,9,2
2,1.116613,0,2,22,1,12,2
2,1.150839,0,3,72,3,12,3
2,0.912575,0,1,63,3,9,2
2,1.583642,0,1,103,1,2,5
2,1.313173,1,1,3,1,9,8
2,1.14841,1,2,85,4,9,8
2,0.975944,1,2,142,4,3,5
2,2.01088,0,1,100,1,2,5
2,1.17345,0,3,104,1,2,7
2,2.068478,0,2,21,1,11,2
2,1.122404,0,1,127,3,4,6
2,0.630506,0,1,139,4,3,6
2,2.140546,0,2,95,4,12,1
2,0.969848,0,3,32,2,11,3
2,1.015663,0,1,123,3,4,6
2,1.048045,0,3,29,2,10,3
2,1.518708,0,3,77,4,10,3
2,1.089346,0,2,57,3,11,1
2,0.886189,0,2,13,1,9,2
2,1.13562,0,1,28,2,10,1
2,1.413424,1,2,71,3,12,1
2,1.132697,0,2,129,3,4,5
2,1.475105,0,2,117,2,1,6
2,1.353517,0,2,97,1,2,6
2,1.220564,0,3,2,1,9,4
2,1.0593,0,3,56,3,11,4
2,1.582527,0,2,119,2,1,6
2,1.148186,0,2,118,2,1,6
2,1.076853,0,1,75,4,9,2
2,1.073197,1,1,55,3,11,2
2,1.333669,0,3,62,3,9,4
2,1.160529,0,2,93,4,11,8
2,1.073104,0,1,67,3,11,2
2,1.220907,0,1,31,2,11,8
2,1.508461,0,3,26,2,9,4
2,1.730623,0,1,39,2,9,1
2,0.596675,0,2,131,3,4,5
2,1.451945,0,1,115,2,1,5
2,0.848495,0,1,6,1,10,1
2,0.960343,0,2,35,2,12,2
2,1.360425,0,3,120,2,1,7
2,0.820787,0,1,99,1,2,5
2,1.237469,0,3,101,1,2,7
2,1.292057,0,3,144,4,3,7
2,1.208219,0,3,96,4,12,3
2,1.463038,0,2,23,1,12,2
2,0.904622,0,2,130,3,4,5
2,1.078632,0,3,5,1,10,3
2,1.261889,0,1,64,3,10,2
2,1.461841,0,3,38,2,9,3
2,2.082732,0,2,34,2,12,2
2,1.34646,0,1,76,4,10,2
2,1.024911,0,3,113,2,1,7
2,1.752565,0,2,25,2,9,2
2,1.02525,0,2,10,1,12,2
2,1.299273,0,3,24,1,12,3
2,1.127588,0,3,53,3,10,3
2,0.686706,0,1,138,4,3,6
2,1.649243,0,1,19,1,11,1
2,1.131935,0,3,116,2,1,7
2,1.75841,0,2,82,4,12,8
2,1.295735,0,1,66,3,10,2
2,1.150951,0,1,91,4,11,2
2,1.14814,0,1,114,2,1,5
2,1.693006,0,3,92,4,11,3
2,1.128512,0,3,80,4,11,4
2,1.515176,0,1,88,4,10,2
2,1.551644,0,3,84,4,12,4
2,1.016211,0,1,30,2,10,1
2,0.613995,0,2,121,3,4,5
2,0.829843,0,2,107,1,2,6
2,0.988957,0,1,16,1,10,8
2,1.084848,0,3,122,3,4,7
2,1.049939,0,3,50,3,9,3
2,1.038652,0,3,132,3,4,7
2,1.365377,0,3,17,1,10,4
2,1.895165,1,2,59,3,12,8
2,1.098411,0,2,109,2,1,6
2,1.283779,0,3,20,1,11,4
2,1.376691,1,1,54,3,10,2
2,1.220778,0,1,79,4,11,2
2,1.662943,1,2,9,1,11,2
2,1.202916,0,2,1,1,9,2
2,1.175176,0,3,14,1,9,3
2,1.067606,0,1,124,3,4,6
2,1.687824,1,2,61,3,9,8
2,0.972384,0,1,135,4,3,6
2,0.990091,1,2,133,4,3,5
2,1.013857,0,2,70,3,12,1
2,0.681648,0,2,106,1,2,6
2,1.259204,0,1,111,2,1,5
2,1.205791,0,2,11,1,12,2
2,0.844663,0,2,47,2,12,2
2,1.276933,0,3,125,3,4,7
2,1.201439,0,3,41,2,10,4
2,1.305896,0,2,33,2,11,2
2,1.255466,0,2,141,4,3,5
2,1.25256,0,3,48,2,12,3
2,0.961606,0,2,81,4,11,1
2,1.395128,0,1,87,4,9,2
2,0.9706,0,3,110,2,1,7
2,1.323993,0,3,98,1,2,7
2,1.29476,0,2,58,3,12,8
2,1.194977,0,3,68,3,11,3
2,1.114522,0,3,36,2,12,4
2,0.853784,0,3,137,4,3,7
2,0.834427,0,3,89,4,10,4
2,1.121346,0,1,40,2,10,8
2,1.805447,0,2,94,4,12,1
2,1.292209,0,1,4,1,10,1
2,1.105828,1,2,105,1,2,6
2,1.045545,0,3,140,4,3,7
2,0.70594,1,1,52,3,10,2
2,1.463663,0,2,69,3,11,8
2,0.788358,0,1,136,4,3,6
2,1.245897,0,3,12,1,12,4
2,1.187614,1,2,45,2,11,2
2,0.919862,0,1,78,4,10,2
2,0.980856,0,1,126,3,4,6
2,2.302712,1,1,7,1,11,8
2,1.153694,0,3,74,4,9,3
2,1.000971,0,1,42,2,10,8
2,1.145321,0,3,108,1,2,7
2,1.027859,0,3,60,3,12,4
2,1.562073,0,1,18,1,10,8
2,0.927997,0,1,43,2,11,1
2,1.684105,0,2,73,4,9,1
2,1.675603,0,2,83,4,12,8
2,1.124646,0,1,90,4,10,2
2,1.526831,0,1,27,2,9,8
2,0.865042,0,1,51,3,9,2
2,1.294001,0,3,86,4,9,4
2,1.065557,0,3,44,2,11,4
2,0.939928,0,3,44,2,11,4
2,0.893545,0,3,56,3,11,4
2,0.976908,1,2,131,3,4,5
2,0.919443,0,3,8,1,11,3
2,1.01006,0,1,40,2,10,8
2,1.193805,0,3,38,2,9,3
2,1.279855,0,2,94,4,12,1
2,1.109913,0,3,86,4,9,4
2,1.601179,0,3,41,2,10,4
2,1.104329,0,3,65,3,10,4
2,1.267859,0,3,36,2,12,4
2,0.928244,0,3,140,4,3,7
2,1.075579,0,1,16,1,10,8
2,0.647361,0,1,64,3,10,2
2,1.093929,0,1,100,1,2,5
2,1.06042,0,3,53,3,10,3
2,1.634628,0,1,3,1,9,8
2,0.680894,0,1,136,4,3,6
2,0.531988,1,2,106,1,2,6
2,2.52704,0,1,66,3,10,2
2,1.200047,0,3,134,4,3,7
2,0.988515,1,1,135,4,3,6
2,3.036655,0,1,43,2,11,1
2,1.116022,0,1,99,1,2,5
2,1.031762,0,1,127,3,4,6
2,1.40177,0,3,110,2,1,7
2,0.921876,0,2,118,2,1,6
2,1.958699,1,1,27,2,9,8
2,2.128374,0,2,83,4,12,8
2,1.338784,0,2,25,2,9,2
2,1.507654,0,2,49,3,9,1
2,1.217481,1,2,117,2,1,6
2,0.656893,0,2,61,3,9,8
2,1.235355,0,1,115,2,1,5
2,0.94011,0,2,73,4,9,1
2,1.288665,0,3,17,1,10,4
2,1.491851,1,3,89,4,10,4
2,1.089407,0,2,21,1,11,2
2,1.133147,0,3,2,1,9,4
2,1.687662,0,2,69,3,11,8
2,1.800882,0,2,13,1,9,2
2,1.205614,1,1,111,2,1,5
2,1.199981,0,3,5,1,10,3
2,0.677572,0,1,112,2,1,5
2,1.574012,0,2,93,4,11,8
2,1.312167,0,2,70,3,12,1
2,1.143178,0,1,31,2,11,8
2,1.457346,1,2,22,1,12,2
2,1.057432,0,1,28,2,10,1
2,1.359842,0,2,133,4,3,5
2,0.786682,0,2,143,4,3,5
2,1.792616,0,2,9,1,11,2
2,3.274065,0,2,142,4,3,5
2,0.719242,0,2,45,2,11,2
2,1.185421,0,2,97,1,2,6
2,0.995139,0,2,59,3,12,8
2,1.339783,0,1,63,3,9,2
2,1.402169,0,3,50,3,9,3
2,1.277306,1,1,6,1,10,1
2,1.135299,0,1,90,4,10,2
2,1.185109,0,1,51,3,9,2
2,1.225066,0,3,144,4,3,7
2,0.792152,0,2,95,4,12,1
2,1.277837,0,1,7,1,11,8
2,1.345643,0,3,96,4,12,3
2,1.046971,0,1,138,4,3,6
2,1.236943,0,3,24,1,12,3
2,1.155957,0,3,120,2,1,7
2,1.61931,1,1,15,1,9,1
2,0.767181,0,1,42,2,10,8
2,1.750263,0,2,71,3,12,1
2,0.976045,0,2,121,3,4,5
2,0.85348,0,1,114,2,1,5
2,1.201507,0,3,48,2,12,3
2,1.206616,1,1,79,4,11,2
2,1.768472,0,3,60,3,12,4
2,0.810463,0,3,116,2,1,7
2,0.925968,0,1,91,4,11,2
2,1.395594,0,1,19,1,11,1
2,1.156299,0,3,128,3,4,7
2,1.150179,0,1,124,3,4,6
2,1.749832,0,2,58,3,12,8
2,0.783592,0,1,30,2,10,1
2,1.557158,0,3,92,4,11,3
2,0.917912,0,1,39,2,9,1
2,1.224718,0,3,80,4,11,4
2,2.135795,1,3,132,3,4,7
2,1.234575,0,3,84,4,12,4
2,1.05763,1,2,105,1,2,6
2,1.680988,1,1,87,4,9,2
2,1.029841,0,3,101,1,2,7
2,1.396778,0,3,98,1,2,7
2,1.124131,0,3,104,1,2,7
2,1.335959,1,1,75,4,9,2
2,1.033365,0,2,107,1,2,6
2,1.167286,0,3,26,2,9,4
2,0.712361,0,3,32,2,11,3
2,0.789817,0,1,126,3,4,6
2,0.862589,0,3,12,1,12,4
2,0.89785,0,2,141,4,3,5
2,1.726447,0,2,82,4,12,8
2,1.281417,0,3,122,3,4,7
2,1.755627,0,2,109,2,1,6
2,1.172393,0,1,102,1,2,5
2,1.466443,1,1,67,3,11,2
2,2.185218,1,3,68,3,11,3
2,0.922017,0,1,18,1,10,8
2,1.157563,1,2,129,3,4,5
2,0.838619,0,1,54,3,10,2
2,0.962865,0,3,14,1,9,3
2,1.003819,0,3,20,1,11,4
2,0.871214,0,1,55,3,11,2
2,0.8761,0,1,78,4,10,2
2,1.76677,0,2,23,1,12,2
2,1.242696,0,3,137,4,3,7
2,2.816679,1,1,52,3,10,2
2,1.081007,0,2,57,3,11,1
2,0.914772,0,2,81,4,11,1
2,1.232426,0,1,103,1,2,5
2,1.148332,0,3,108,1,2,7
2,0.926202,0,3,29,2,10,3
2,1.385129,0,2,46,2,12,2
2,1.46585,0,2,130,3,4,5
2,1.82841,1,2,85,4,9,8
2,0.709669,0,2,11,1,12,2
2,2.200924,0,1,4,1,10,1
2,1.14971,0,1,76,4,10,2
2,1.304429,1,2,47,2,12,2
2,1.022744,1,2,34,2,12,2
2,0.793512,0,2,119,2,1,6
2,1.585081,0,3,77,4,10,3
2,1.136938,0,3,74,4,9,3
2,1.159711,0,1,139,4,3,6
2,1.713627,0,2,37,2,9,2
2,1.268542,0,3,125,3,4,7
2,1.008969,0,3,62,3,9,4
2,1.112828,0,3,72,3,12,3
2,0.705673,0,3,113,2,1,7
2,1.149546,0,2,10,1,12,2
2,0.799822,1,1,88,4,10,2
2,1.167249,1,2,33,2,11,2
2,1.11206,1,2,35,2,12,2
2,1.1678,0,1,123,3,4,6
2,1.163713,0,2,1,1,9,2
2,0.638357,0,2,49,3,9,1
2,1.075062,0,3,104,1,2,7
2,0.886835,0,3,8,1,11,3
2,0.99689,1,2,141,4,3,5
2,1.138175,0,2,93,4,11,8
2,1.052554,0,3,74,4,9,3
2,1.317983,0,1,136,4,3,6
2,1.107064,0,2,117,2,1,6
2,1.081582,0,1,75,4,9,2
2,1.033186,0,1,138,4,3,6
2,1.060338,0,2,83,4,12,8
2,0.778049,0,1,42,2,10,8
2,0.63025,0,1,135,4,3,6
2,0.821545,0,2,21,1,11,2
2,1.167989,0,1,78,4,10,2
2,1.086824,0,3,32,2,11,3
2,0.899646,0,1,18,1,10,8
2,1.131671,0,1,112,2,1,5
2,0.92658,0,2,118,2,1,6
2,0.997452,0,3,92,4,11,3
2,0.991935,0,2,45,2,11,2
2,1.178574,0,3,144,4,3,7
2,2.283184,1,3,14,1,9,3
2,0.967888,0,3,50,3,9,3
2,1.128538,0,3,108,1,2,7
2,1.034935,1,2,22,1,12,2
2,1.400599,0,2,11,1,12,2
2,0.944313,0,3,56,3,11,4
2,1.07462,0,2,69,3,11,8
2,0.951662,0,3,77,4,10,3
2,0.904634,0,3,122,3,4,7
2,0.795898,0,1,16,1,10,8
2,0.908478,0,3,48,2,12,3
2,1.031298,1,3,26,2,9,4
2,0.934358,0,3,96,4,12,3
2,0.712611,0,3,120,2,1,7
2,1.53189,0,2,10,1,12,2
2,1.063111,0,2,59,3,12,8
2,0.763613,0,2,9,1,11,2
2,0.793209,0,2,37,2,9,2
2,1.236142,0,2,58,3,12,8
2,0.962658,0,3,116,2,1,7
2,0.843881,0,3,41,2,10,4
2,0.845175,1,2,25,2,9,2
2,0.971387,0,1,4,1,10,1
2,1.050125,0,1,103,1,2,5
2,1.048535,0,1,87,4,9,2
2,1.006384,0,3,140,4,3,7
2,0.772331,0,1,124,3,4,6
2,1.283644,0,2,57,3,11,1
2,1.092893,0,3,17,1,10,4
2,0.87395,0,1,111,2,1,5
2,0.908921,0,1,31,2,11,8
2,1.469391,0,2,95,4,12,1
2,1.015986,0,2,34,2,12,2
2,0.975435,0,3,134,4,3,7
2,1.151397,0,2,47,2,12,2
2,0.829933,0,3,125,3,4,7
2,1.107997,0,3,128,3,4,7
2,1.021258,0,3,20,1,11,4
2,1.068562,0,3,132,3,4,7
2,1.277407,0,1,123,3,4,6
2,1.014558,0,2,82,4,12,8
2,1.717362,0,3,110,2,1,7
2,0.689953,0,2,142,4,3,5
2,1.575276,1,3,36,2,12,4
2,1.240162,0,1,54,3,10,2
2,0.989017,0,3,5,1,10,3
2,1.211252,0,2,109,2,1,6
2,0.882317,1,1,114,2,1,5
2,1.304044,0,1,139,4,3,6
2,1.357792,0,1,39,2,9,1
2,1.047688,0,2,71,3,12,1
2,1.001154,1,3,84,4,12,4
2,1.168506,0,3,12,1,12,4
2,0.873271,0,3,65,3,10,4
2,0.88192,0,1,63,3,9,2
2,1.52282,0,3,53,3,10,3
2,0.965875,0,1,64,3,10,2
2,0.87035,0,2,33,2,11,2
2,0.978497,0,3,62,3,9,4
2,1.15857,0,1,43,2,11,1
2,0.785323,0,2,129,3,4,5
2,1.476896,0,1,76,4,10,2
2,1.350797,1,1,3,1,9,8
2,1.656539,0,2,1,1,9,2
2,1.080868,0,2,143,4,3,5
2,1.23571,0,1,55,3,11,2
2,1.278927,0,3,44,2,11,4
2,1.273991,0,1,90,4,10,2
2,1.221707,0,1,102,1,2,5
2,1.220388,0,1,51,3,9,2
2,0.78745,0,2,61,3,9,8
2,1.243014,1,1,88,4,10,2
2,0.919202,0,1,91,4,11,2
2,1.077842,0,1,15,1,9,1
2,1.038464,0,3,89,4,10,4
2,1.493932,0,1,115,2,1,5
2,1.495024,0,1,79,4,11,2
2,0.99393,0,2,85,4,9,8
2,1.868418,0,2,81,4,11,1
2,1.248067,0,3,72,3,12,3
2,1.653961,0,1,66,3,10,2
2,1.180158,0,2,23,1,12,2
2,1.29574,0,3,68,3,11,3
2,1.135936,1,2,133,4,3,5
2,0.958781,0,3,29,2,10,3
2,1.666685,0,1,6,1,10,1
2,1.215072,0,2,106,1,2,6
2,1.109625,0,3,60,3,12,4
2,1.914152,1,1,127,3,4,6
2,1.143413,0,3,2,1,9,4
2,0.770637,0,2,105,1,2,6
2,0.945627,0,3,101,1,2,7
2,0.723639,0,2,121,3,4,5
2,1.035208,0,1,30,2,10,1
2,0.729279,0,1,40,2,10,8
2,1.005059,0,2,70,3,12,1
2,1.955718,0,1,52,3,10,2
2,0.988197,0,2,46,2,12,2
2,0.811145,0,2,119,2,1,6
2,0.803252,0,2,35,2,12,2
2,1.098799,0,1,19,1,11,1
2,1.090552,0,1,28,2,10,1
2,1.185428,0,2,73,4,9,1
2,0.97934,0,1,27,2,9,8
2,1.099019,0,3,80,4,11,4
2,1.086603,0,3,113,2,1,7
2,1.329922,0,1,7,1,11,8
2,0.965099,0,3,137,4,3,7
2,1.724008,1,1,126,3,4,6
2,1.025181,0,1,99,1,2,5
2,0.625721,0,2,13,1,9,2
2,0.955526,1,3,24,1,12,3
2,1.227874,0,3,98,1,2,7
2,0.744976,0,2,131,3,4,5
2,0.997555,0,2,130,3,4,5
2,1.225464,0,2,107,1,2,6
2,0.910498,0,1,67,3,11,2
2,1.013315,1,2,94,4,12,1
2,1.082621,0,2,97,1,2,6
2,1.227442,0,3,38,2,9,3
2,1.038841,0,1,100,1,2,5
2,1.103076,0,3,86,4,9,4
3,1.016872,0,2,99,1,2,6
3,1.145674,0,3,59,3,12,4
3,1.061855,0,3,9,1,11,3
3,0.717945,0,2,67,3,11,8
3,1.000075,0,3,21,1,11,4
3,1.060765,0,1,125,3,4,6
3,1.414714,0,1,5,1,10,1
3,1.124416,0,2,115,2,1,6
3,0.765601,0,2,28,2,10,2
3,0.999081,0,2,122,3,4,5
3,1.085142,0,2,112,2,1,6
3,1.231859,0,3,129,3,4,7
3,0.881934,0,3,119,2,1,7
3,0.844474,0,3,57,3,11,3
3,0.860274,1,1,58,3,12,2
3,1.002489,1,1,142,4,3,6
3,0.991628,0,1,6,1,10,8
3,1.019376,0,3,120,2,1,7
3,1.11979,0,3,61,3,9,4
3,1.464828,0,1,130,3,4,6
3,0.771031,0,2,79,4,11,1
3,1.534026,0,3,85,4,9,4
3,0.629137,0,2,86,4,9,1
3,0.893993,0,2,74,4,9,8
3,1.076551,0,3,72,3,12,3
3,1.12382,1,2,15,1,9,2
3,1.255764,0,2,135,4,3,5
3,0.883261,0,2,64,3,10,1
3,0.75018,1,1,128,3,4,6
3,0.913215,0,2,100,1,2,6
3,0.971356,0,3,84,4,12,4
3,1.139936,0,1,42,2,10,1
3,1.232941,1,2,27,2,9,2
3,0.891236,1,2,87,4,9,8
3,0.865459,0,2,38,2,9,2
3,1.006239,0,1,17,1,10,8
3,1.773911,1,1,41,2,10,8
3,1.421973,0,1,53,3,10,2
3,1.523169,0,2,3,1,9,2
3,1.475004,0,3,73,4,9,3
3,1.046017,0,1,80,4,11,2
3,1.327278,0,2,2,1,9,2
3,1.110694,0,1,92,4,11,2
3,1.539239,0,3,1,1,9,4
3,1.186504,0,3,96,4,12,3
3,1.427759,0,2,88,4,10,1
3,0.75891,0,2,16,1,10,2
3,0.911678,0,2,76,4,10,8
3,0.947323,0,3,107,1,2,7
3,0.703194,1,2,103,1,2,6
3,0.947645,0,3,48,2,12,3
3,1.064415,1,1,82,4,12,2
3,1.430463,0,2,43,2,11,2
3,0.945537,0,1,137,4,3,6
3,0.673111,1,2,39,2,9,2
3,1.11073,0,2,40,2,10,2
3,1.119276,0,3,71,3,12,3
3,0.840948,1,1,94,4,12,2
3,0.876196,0,1,106,1,2,5
3,1.435855,1,3,25,2,9,4
3,2.037687,0,2,63,3,9,8
3,1.153254,0,3,97,1,2,7
3,1.437474,0,1,8,1,11,8
3,1.208526,0,1,30,2,10,8
3,0.835146,0,2,50,3,9,8
3,1.139309,0,3,93,4,11,4
3,0.795771,0,3,105,1,2,7
3,0.695554,0,2,55,3,11,1
3,0.987359,0,2,7,1,11,2
3,0.892858,1,1,118,2,1,5
3,1.014393,0,3,141,4,3,7
3,0.892423,0,1,68,3,11,2
3,1.004606,0,3,143,4,3,7
3,0.924497,0,3,108,1,2,7
3,1.004954,0,3,121,3,4,7
3,0.631274,0,3,131,3,4,7
3,1.05318,0,3,45,2,11,4
3,2.819318,0,1,126,3,4,6
3,1.097202,1,2,110,2,1,6
3,0.79678,0,2,62,3,9,1
3,0.965814,0,1,65,3,10,2
3,1.27386,1,1,138,4,3,6
3,1.416141,0,3,24,1,12,3
3,0.873725,0,1,113,2,1,5
3,0.934635,0,1,18,1,10,1
3,0.994206,0,1,22,1,12,8
3,0.766968,0,2,52,3,10,8
3,0.905227,1,3,37,2,9,3
3,0.789067,0,2,19,1,11,2
3,0.979632,1,2,134,4,3,5
3,1.979826,0,3,83,4,12,4
3,1.227585,0,3,132,3,4,7
3,0.670808,0,2,111,2,1,6
3,1.737953,0,1,66,3,10,2
3,0.739449,1,3,11,1,12,3
3,0.732901,1,1,29,2,10,1
3,1.63019,0,3,69,3,11,4
3,1.103981,0,3,109,2,1,7
3,1.115472,1,1,70,3,12,2
3,0.736015,1,1,78,4,10,2
3,1.007677,1,1,20,1,11,1
3,0.630572,0,3,47,2,12,4
3,1.177271,0,3,81,4,11,3
3,1.527025,0,3,23,1,12,4
3,0.912039,0,1,140,4,3,6
3,0.883612,1,2,14,1,9,2
3,1.983465,0,1,89,4,10,2
3,0.935348,0,2,98,1,2,6
3,1.740074,0,1,116,2,1,5
3,1.693671,0,3,12,1,12,4
3,0.725897,1,1,101,1,2,5
3,0.816676,0,2,4,1,10,2
3,1.081759,0,2,139,4,3,5
3,0.9543,1,1,102,1,2,5
3,1.227437,0,1,90,4,10,2
3,1.467446,0,2,127,3,4,5
3,1.000954,0,1,10,1,12,1
3,1.234292,0,2,91,4,11,8
3,0.577949,0,2,136,4,3,5
3,0.765631,1,2,26,2,9,2
3,1.135207,0,3,36,2,12,4
3,1.015162,0,3,133,4,3,7
3,0.97589,0,3,49,3,9,3
3,1.119257,0,3,13,1,9,3
3,0.753242,0,3,60,3,12,4
3,0.668467,1,3,35,2,12,3
3,0.806399,0,3,117,2,1,7
3,0.794451,0,2,51,3,9,1
3,1.267342,0,1,34,2,12,1
3,0.938996,1,1,32,2,11,8
3,1.154028,0,2,123,3,4,5
3,0.790295,0,1,77,4,10,2
3,0.724598,0,1,114,2,1,5
3,0.978151,0,1,56,3,11,2
3,0.932746,0,2,124,3,4,5
3,0.575167,1,3,144,4,3,7
3,0.877496,1,1,54,3,10,2
3,0.675173,0,3,95,4,12,3
3,1.397079,1,1,44,2,11,1
3,1.254413,1,2,31,2,11,2
3,1.056888,1,2,75,4,9,1
3,0.79649,0,3,33,2,11,3
3,1.064346,0,1,46,2,12,8
3,1.069457,1,1,104,1,2,5
3,0.707573,1,1,104,1,2,5
3,1.054311,0,2,16,1,10,2
3,1.268328,0,3,121,3,4,7
3,0.944315,0,1,32,2,11,8
3,0.96637,0,3,45,2,11,4
3,0.944221,0,1,46,2,12,8
3,0.868373,0,1,54,3,10,2
3,0.7324,0,2,28,2,10,2
3,1.031211,1,2,67,3,11,8
3,0.858962,0,1,18,1,10,1
3,0.767818,0,2,87,4,9,8
3,1.013588,0,3,84,4,12,4
3,1.020612,0,1,68,3,11,2
3,0.778239,0,2,39,2,9,2
3,0.538471,0,2,124,3,4,5
3,0.523485,0,2,62,3,9,1
3,0.592739,0,2,4,1,10,2
3,0.699374,0,2,79,4,11,1
3,0.731866,1,3,97,1,2,7
3,1.018536,0,3,12,1,12,4
3,0.967178,0,2,127,3,4,5
3,0.994642,0,3,33,2,11,3
3,0.916887,0,3,132,3,4,7
3,0.7149,0,2,135,4,3,5
3,1.023291,0,1,6,1,10,8
3,0.877469,1,3,96,4,12,3
3,0.951703,0,1,41,2,10,8
3,0.790321,0,2,51,3,9,1
3,0.996025,0,3,105,1,2,7
3,1.261949,1,3,119,2,1,7
3,0.592229,1,1,126,3,4,6
3,0.737653,0,1,58,3,12,2
3,0.916513,1,2,115,2,1,6
3,0.915219,0,1,29,2,10,1
3,0.821243,0,2,63,3,9,8
3,1.321912,0,3,23,1,12,4
3,1.107382,0,3,131,3,4,7
3,0.632811,0,1,10,1,12,1
3,0.955081,0,1,70,3,12,2
3,1.029742,0,3,47,2,12,4
3,0.817593,0,2,123,3,4,5
3,0.66724,0,2,86,4,9,1
3,0.832892,0,2,136,4,3,5
3,1.600621,0,2,3,1,9,2
3,1.084705,0,3,60,3,12,4
3,0.547649,0,1,42,2,10,1
3,1.072227,0,3,108,1,2,7
3,1.444441,0,1,65,3,10,2
3,1.084964,0,1,89,4,10,2
3,1.092877,0,3,37,2,9,3
3,0.764226,0,1,44,2,11,1
3,0.797473,0,3,57,3,11,3
3,1.078758,0,2,112,2,1,6
3,1.343657,0,1,56,3,11,2
3,0.820789,0,1,113,2,1,5
3,0.835693,0,1,106,1,2,5
3,2.698677,0,3,72,3,12,3
3,0.933,0,1,53,3,10,2
3,1.303534,0,1,5,1,10,1
3,0.957612,0,3,13,1,9,3
3,0.700022,0,1,20,1,11,1
3,0.776182,0,3,120,2,1,7
3,0.518729,0,3,95,4,12,3
3,0.728132,0,2,122,3,4,5
3,0.651884,0,3,21,1,11,4
3,0.995407,0,2,27,2,9,2
3,0.902273,0,1,8,1,11,8
3,0.72239,0,3,59,3,12,4
3,1.074993,0,2,15,1,9,2
3,1.009237,0,1,34,2,12,1
3,1.907236,0,3,35,2,12,3
3,0.903128,0,3,71,3,12,3
3,0.512432,1,2,55,3,11,1
3,0.790127,0,2,134,4,3,5
3,1.095099,0,1,92,4,11,2
3,0.973917,1,1,116,2,1,5
3,0.705371,0,1,94,4,12,2
3,1.228398,0,1,82,4,12,2
3,0.664028,0,1,140,4,3,6
3,1.756646,0,2,111,2,1,6
3,1.184386,0,2,139,4,3,5
3,2.012263,0,3,73,4,9,3
3,0.817918,0,2,91,4,11,8
3,0.824098,0,1,80,4,11,2
3,0.723189,0,2,88,4,10,1
3,0.988471,1,3,69,3,11,4
3,0.944193,0,2,38,2,9,2
3,0.836929,0,1,142,4,3,6
3,0.953634,0,3,117,2,1,7
3,0.718042,0,2,26,2,9,2
3,1.241505,1,3,49,3,9,3
3,2.110713,0,1,130,3,4,6
3,0.677219,0,2,64,3,10,1
3,1.241544,0,1,77,4,10,2
3,0.764226,0,2,31,2,11,2
3,1.085413,0,1,118,2,1,5
3,0.891869,0,2,14,1,9,2
3,1.119588,0,3,25,2,9,4
3,1.041463,0,3,11,1,12,3
3,0.93185,0,3,129,3,4,7
3,0.786594,0,3,144,4,3,7
3,0.710098,0,2,52,3,10,8
3,0.802864,0,3,24,1,12,3
3,0.698987,0,1,78,4,10,2
3,0.957012,0,3,83,4,12,4
3,0.957012,0,3,107,1,2,7
3,0.601888,0,3,85,4,9,4
3,0.634848,0,2,2,1,9,2
3,0.62126,0,2,76,4,10,8
3,0.735858,1,1,138,4,3,6
3,0.832049,1,1,17,1,10,8
3,0.650495,0,2,50,3,9,8
3,0.758245,0,2,110,2,1,6
3,0.848761,0,3,141,4,3,7
3,0.679637,0,2,74,4,9,8
3,0.995902,0,1,30,2,10,8
3,1.243206,0,1,125,3,4,6
3,0.693713,0,2,40,2,10,2
3,0.97434,0,3,1,1,9,4
3,0.755327,1,2,75,4,9,1
3,1.106753,0,1,22,1,12,8
3,0.884034,0,2,19,1,11,2
3,0.89585,0,3,36,2,12,4
3,1.267685,0,1,128,3,4,6
3,0.555978,1,1,66,3,10,2
3,0.876986,0,2,103,1,2,6
3,0.922811,0,3,9,1,11,3
3,0.730868,0,3,81,4,11,3
3,0.658504,0,1,102,1,2,5
3,1.223473,1,3,48,2,12,3
3,1.141606,0,3,109,2,1,7
3,1.006192,1,1,90,4,10,2
3,1.29769,1,3,143,4,3,7
3,0.518729,1,2,98,1,2,6
3,0.576346,0,1,114,2,1,5
3,2.067559,0,1,137,4,3,6
3,1.093256,0,2,99,1,2,6
3,1.165134,0,3,93,4,11,4
3,0.78922,0,2,7,1,11,2
3,0.747683,1,3,61,3,9,4
3,0.912452,0,2,100,1,2,6
3,1.47057,0,3,133,4,3,7
3,0.802211,1,1,101,1,2,5
3,0.748174,0,2,43,2,11,2
3,0.932238,1,2,79,4,11,1
3,1.185337,0,1,34,2,12,1
3,0.611276,0,2,139,4,3,5
3,1.051312,0,1,8,1,11,8
3,0.69699,0,2,7,1,11,2
3,0.779384,0,1,22,1,12,8
3,0.58805,0,2,134,4,3,5
3,0.766841,0,1,46,2,12,8
3,1.048722,1,1,29,2,10,1
3,1.370734,0,1,89,4,10,2
3,1.109497,0,2,64,3,10,1
3,0.69442,0,2,99,1,2,6
3,1.160668,1,3,143,4,3,7
3,0.803546,0,2,123,3,4,5
3,1.741141,1,3,23,1,12,4
3,1.051308,1,1,18,1,10,1
3,0.956986,1,3,69,3,11,4
3,0.631234,0,2,38,2,9,2
3,0.604423,1,3,83,4,12,4
3,0.761632,0,2,16,1,10,2
3,0.886809,0,2,31,2,11,2
3,0.567076,1,3,132,3,4,7
3,0.959647,0,3,35,2,12,3
3,0.982339,0,1,138,4,3,6
3,0.849866,0,3,109,2,1,7
3,0.883327,0,1,10,1,12,1
3,0.840799,0,2,136,4,3,5
3,0.612767,0,1,6,1,10,8
3,0.771349,0,3,9,1,11,3
3,0.643142,0,2,86,4,9,1
3,0.55043,0,2,55,3,11,1
3,0.984258,0,1,82,4,12,2
3,0.724028,0,3,121,3,4,7
3,0.539823,0,1,128,3,4,6
3,1.247434,0,1,101,1,2,5
3,0.663178,0,1,130,3,4,6
3,0.963762,1,1,102,1,2,5
3,0.668168,1,3,108,1,2,7
3,1.280121,0,3,73,4,9,3
3,1.096579,1,3,48,2,12,3
3,0.767123,0,3,129,3,4,7
3,0.705011,0,2,26,2,9,2
3,0.733243,1,1,41,2,10,8
3,1.315913,0,3,93,4,11,4
3,0.759168,1,3,11,1,12,3
3,0.817459,0,3,12,1,12,4
3,1.896431,0,3,107,1,2,7
3,0.877552,0,1,80,4,11,2
3,0.800232,0,3,33,2,11,3
3,0.631525,0,2,27,2,9,2
3,0.780128,0,2,103,1,2,6
3,0.901049,0,2,115,2,1,6
3,0.817908,0,3,59,3,12,4
3,0.929256,0,1,20,1,11,1
3,0.746178,0,1,54,3,10,2
3,1.052797,1,1,68,3,11,2
3,0.664658,0,2,100,1,2,6
3,0.69363,0,1,32,2,11,8
3,0.592948,0,2,124,3,4,5
3,0.874445,0,3,96,4,12,3
3,1.198447,0,1,66,3,10,2
3,0.733522,0,1,30,2,10,8
3,1.059923,0,3,144,4,3,7
3,0.83693,0,2,75,4,9,1
3,1.308258,0,3,24,1,12,3
3,0.906138,1,2,110,2,1,6
3,1.031827,0,3,45,2,11,4
3,0.876141,0,1,125,3,4,6
3,0.586274,0,2,111,2,1,6
3,0.629449,0,2,2,1,9,2
3,0.618773,0,2,98,1,2,6
3,1.083507,0,3,84,4,12,4
3,0.811896,0,3,57,3,11,3
3,0.97777,0,2,14,1,9,2
3,0.882497,0,3,95,4,12,3
3,0.740681,0,3,49,3,9,3
3,0.742499,1,1,137,4,3,6
3,1.055282,0,2,74,4,9,8
3,0.677003,0,3,1,1,9,4
3,1.018537,0,2,62,3,9,1
3,1.248074,0,2,135,4,3,5
3,0.605074,0,1,44,2,11,1
3,1.042622,1,1,42,2,10,1
3,1.014191,0,2,3,1,9,2
3,0.944768,1,1,70,3,12,2
3,1.458654,1,2,50,3,9,8
3,1.598594,0,1,53,3,10,2
3,0.792856,0,3,131,3,4,7
3,0.667638,0,3,133,4,3,7
3,0.63944,1,1,65,3,10,2
3,0.872226,0,3,117,2,1,7
3,1.322308,0,2,39,2,9,2
3,0.969403,0,1,5,1,10,1
3,1.190566,1,3,105,1,2,7
3,0.946681,0,1,78,4,10,2
3,0.999456,0,1,118,2,1,5
3,0.616707,0,2,63,3,9,8
3,0.850429,0,1,142,4,3,6
3,1.501589,0,3,47,2,12,4
3,0.905589,0,1,94,4,12,2
3,0.763215,0,1,56,3,11,2
3,0.700738,0,1,114,2,1,5
3,0.736189,0,3,85,4,9,4
3,0.691353,0,1,104,1,2,5
3,0.771167,0,2,91,4,11,8
3,1.631266,0,1,58,3,12,2
3,0.526092,0,2,43,2,11,2
3,0.64033,0,2,19,1,11,2
3,1.192176,1,3,60,3,12,4
3,0.770051,0,1,77,4,10,2
3,1.018872,1,3,72,3,12,3
3,0.897328,1,3,37,2,9,3
3,0.635418,0,2,51,3,9,1
3,0.947688,1,3,13,1,9,3
3,0.673422,0,1,140,4,3,6
3,0.720099,0,2,52,3,10,8
3,1.266542,0,3,21,1,11,4
3,1.205748,1,3,141,4,3,7
3,0.579883,0,2,112,2,1,6
3,1.025172,0,1,116,2,1,5
3,0.512168,0,2,122,3,4,5
3,0.583526,0,2,40,2,10,2
3,0.659431,0,3,119,2,1,7
3,0.568424,0,2,4,1,10,2
3,0.826778,0,1,113,2,1,5
3,1.474808,0,3,81,4,11,3
3,1.204585,0,3,97,1,2,7
3,1.093199,1,1,92,4,11,2
3,0.643082,1,2,15,1,9,2
3,0.845443,0,3,61,3,9,4
3,1.293127,0,2,87,4,9,8
3,0.622615,0,2,127,3,4,5
3,1.546523,0,3,25,2,9,4
3,0.895134,0,1,90,4,10,2
3,0.786107,1,3,71,3,12,3
3,0.767611,0,2,88,4,10,1
3,1.360495,0,3,120,2,1,7
3,0.823826,0,1,106,1,2,5
3,0.754517,1,1,17,1,10,8
3,0.680482,0,2,28,2,10,2
3,0.78742,0,2,67,3,11,8
3,1.083047,1,1,126,3,4,6
3,1.001434,0,2,76,4,10,8
3,1.001504,0,3,36,2,12,4
3,0.603916,0,2,135,4,3,5
3,0.794324,0,2,14,1,9,2
3,0.940621,0,3,141,4,3,7
3,0.688074,0,2,3,1,9,2
3,0.968548,0,3,83,4,12,4
3,0.953127,0,3,36,2,12,4
3,0.583842,0,2,64,3,10,1
3,0.872431,0,1,78,4,10,2
3,0.935995,0,3,107,1,2,7
3,0.952815,0,1,104,1,2,5
3,1.512371,1,3,129,3,4,7
3,0.603597,0,2,62,3,9,1
3,0.610631,0,1,114,2,1,5
3,0.595347,0,2,86,4,9,1
3,1.024606,0,3,11,1,12,3
3,1.140679,0,3,97,1,2,7
3,0.970985,0,2,31,2,11,2
3,0.6246,0,1,30,2,10,8
3,0.586163,0,1,106,1,2,5
3,0.667847,0,1,18,1,10,1
3,0.890881,0,3,73,4,9,3
3,0.536892,0,2,124,3,4,5
3,0.849365,0,2,15,1,9,2
3,1.33818,0,3,120,2,1,7
3,0.999969,0,3,119,2,1,7
3,0.73606,0,3,47,2,12,4
3,0.749858,0,3,105,1,2,7
3,0.904494,0,3,23,1,12,4
3,0.762461,1,1,126,3,4,6
3,0.865243,0,3,81,4,11,3
3,1.163131,1,3,13,1,9,3
3,0.612108,0,2,7,1,11,2
3,1.493752,0,3,93,4,11,4
3,0.688712,0,1,70,3,12,2
3,0.663732,0,2,112,2,1,6
3,0.597207,1,1,90,4,10,2
3,1.086345,0,3,84,4,12,4
3,0.60436,0,2,110,2,1,6
3,0.580476,0,1,142,4,3,6
3,0.667017,1,3,131,3,4,7
3,1.062682,0,1,29,2,10,1
3,0.755079,0,1,41,2,10,8
3,0.884145,0,1,53,3,10,2
3,0.703558,0,2,27,2,9,2
3,0.906582,0,1,137,4,3,6
3,0.648683,0,2,115,2,1,6
3,0.734265,1,2,123,3,4,5
3,0.99406,0,2,98,1,2,6
3,0.538194,0,2,2,1,9,2
3,1.315806,1,1,20,1,11,1
3,1.024832,0,3,48,2,12,3
3,1.347138,0,1,65,3,10,2
3,1.478596,0,3,37,2,9,3
3,0.62112,0,2,100,1,2,6
3,1.092831,0,1,32,2,11,8
3,1.307033,0,3,85,4,9,4
3,0.862601,0,3,109,2,1,7
3,0.571374,0,2,91,4,11,8
3,1.201479,0,3,96,4,12,3
3,1.105207,0,1,80,4,11,2
3,0.965944,0,3,25,2,9,4
3,0.639199,0,2,75,4,9,1
3,1.241586,0,1,128,3,4,6
3,0.712685,0,1,116,2,1,5
3,1.40419,0,1,138,4,3,6
3,0.585797,0,2,52,3,10,8
3,0.782021,1,1,17,1,10,8
3,0.87404,0,3,95,4,12,3
3,1.259971,0,3,108,1,2,7
3,0.881298,0,2,43,2,11,2
3,0.848402,0,1,66,3,10,2
3,0.807019,0,3,1,1,9,4
3,0.639156,0,3,69,3,11,4
3,0.713079,0,2,55,3,11,1
3,1.868898,1,1,140,4,3,6
3,0.71917,0,2,26,2,9,2
3,0.746635,0,1,46,2,12,8
3,0.735721,0,2,67,3,11,8
3,0.811568,0,3,45,2,11,4
3,0.794023,0,3,133,4,3,7
3,0.869089,0,1,44,2,11,1
3,0.676626,0,2,19,1,11,2
3,0.956958,0,3,9,1,11,3
3,0.655161,0,2,50,3,9,8
3,1.113039,0,1,68,3,11,2
3,0.661711,0,3,21,1,11,4
3,0.930176,0,3,132,3,4,7
3,0.696795,0,3,61,3,9,4
3,0.535261,0,3,57,3,11,3
3,0.602624,1,1,58,3,12,2
3,0.684351,1,2,87,4,9,8
3,0.764303,0,3,143,4,3,7
3,0.564873,0,2,88,4,10,1
3,1.103584,0,1,34,2,12,1
3,0.925402,0,2,127,3,4,5
3,0.604049,0,2,63,3,9,8
3,0.768555,1,1,113,2,1,5
3,0.781932,0,1,10,1,12,1
3,0.943388,0,3,117,2,1,7
3,0.851229,0,3,49,3,9,3
3,0.619975,0,2,40,2,10,2
3,0.587765,0,2,51,3,9,1
3,0.997102,0,1,102,1,2,5
3,1.370752,0,3,71,3,12,3
3,1.24914,0,1,22,1,12,8
3,0.76839,1,3,60,3,12,4
3,0.579806,0,2,122,3,4,5
3,1.095589,0,2,74,4,9,8
3,0.65952,0,3,35,2,12,3
3,0.792161,0,3,12,1,12,4
3,0.535261,1,1,42,2,10,1
3,0.721317,0,2,136,4,3,5
3,0.720844,0,2,79,4,11,1
3,1.095589,0,2,103,1,2,6
3,1.127468,0,1,5,1,10,1
3,0.717944,0,1,118,2,1,5
3,1.102805,0,1,92,4,11,2
3,0.818441,0,3,59,3,12,4
3,0.917757,0,1,130,3,4,6
3,0.79676,0,2,134,4,3,5
3,0.605564,0,2,16,1,10,2
3,0.776329,0,1,77,4,10,2
3,1.062425,0,1,54,3,10,2
3,0.601801,0,1,6,1,10,8
3,0.779003,0,1,94,4,12,2
3,0.629381,0,2,4,1,10,2
3,0.730997,0,1,8,1,11,8
3,0.523503,0,2,38,2,9,2
3,0.868675,0,3,24,1,12,3
3,0.724041,0,1,125,3,4,6
3,0.694904,0,3,72,3,12,3
3,1.059424,0,2,111,2,1,6
3,0.719559,0,1,56,3,11,2
3,0.647589,1,1,89,4,10,2
3,0.798214,0,2,139,4,3,5
3,0.570577,0,2,28,2,10,2
3,0.818715,0,3,121,3,4,7
3,0.673494,0,2,76,4,10,8
3,1.094383,0,1,101,1,2,5
3,0.651111,0,2,99,1,2,6
3,0.915465,0,3,33,2,11,3
3,1.278232,0,3,144,4,3,7
3,0.826893,0,2,39,2,9,2
3,0.676636,1,1,82,4,12,2
4,1.068252,0,1,118,2,1,5
4,1.032001,0,3,43,2,11,3
4,1.742472,0,3,83,4,12,3
4,1.579015,0,1,18,1,10,1
4,1.49946,0,2,77,4,10,8
4,1.791713,1,3,144,4,3,7
4,0.661781,0,2,136,4,3,5
4,1.512584,0,3,7,1,11,4
4,1.2848,0,1,109,2,1,5
4,1.016283,0,2,2,1,9,2
4,1.735595,1,3,60,3,12,3
4,0.983581,0,1,102,1,2,5
4,1.711819,1,1,61,3,9,2
4,1.420195,0,1,66,3,10,2
4,1.060545,1,2,124,3,4,5
4,1.895106,0,2,64,3,10,8
4,0.845595,0,2,99,1,2,6
4,1.155282,0,1,138,4,3,6
4,1.202559,0,3,143,4,3,7
4,0.846102,0,2,110,2,1,6
4,0.752178,0,2,26,2,9,2
4,1.280322,0,1,80,4,11,2
4,1.736419,1,1,85,4,9,2
4,1.219978,0,1,133,4,3,6
4,1.048008,0,1,49,3,9,2
4,0.885982,0,1,34,2,12,1
4,1.12848,0,1,46,2,12,8
4,1.067816,0,2,98,1,2,6
4,0.900625,0,2,111,2,1,6
4,1.406117,0,3,107,1,2,7
4,0.965572,0,2,27,2,9,2
4,2.044848,1,3,96,4,12,4
4,1.171534,0,1,22,1,12,8
4,0.907384,0,2,101,1,2,6
4,1.370526,0,3,108,1,2,7
4,1.076146,0,3,55,3,11,4
4,2.737206,1,3,141,4,3,7
4,0.569479,0,2,29,2,10,2
4,0.802939,0,1,37,2,9,8
4,1.249834,0,3,103,1,2,7
4,1.176627,0,3,35,2,12,4
4,0.658161,0,1,114,2,1,5
4,1.377695,0,1,128,3,4,6
4,0.931827,0,2,125,3,4,5
4,1.544838,0,3,91,4,11,3
4,1.307752,0,1,92,4,11,2
4,1.104424,0,2,4,1,10,2
4,0.867565,0,2,3,1,9,2
4,1.516609,0,3,45,2,11,4
4,1.877252,0,1,10,1,12,1
4,1.523117,0,2,137,4,3,5
4,1.195871,0,3,71,3,12,4
4,1.433914,0,1,121,3,4,6
4,0.961285,0,1,13,1,9,8
4,1.693674,1,2,40,2,10,2
4,1.316002,0,1,126,3,4,6
4,1.257753,0,2,17,1,10,2
4,1.183286,0,3,12,1,12,3
4,1.256548,0,3,36,2,12,3
4,1.246251,0,3,33,2,11,3
4,0.876489,1,2,16,1,10,2
4,1.410256,0,3,139,4,3,7
4,0.953542,0,1,104,1,2,5
4,0.793134,0,2,74,4,9,1
4,1.196657,0,2,63,3,9,1
4,1.293989,0,1,106,1,2,5
4,1.064276,0,1,78,4,10,2
4,1.20195,0,1,82,4,12,2
4,1.169891,0,1,8,1,11,8
4,1.187532,0,1,56,3,11,2
4,0.941236,0,2,53,3,10,8
4,0.959627,0,1,6,1,10,8
4,0.817696,0,2,62,3,9,8
4,1.1046,0,3,95,4,12,4
4,1.068816,0,3,79,4,11,4
4,1.329774,0,3,120,2,1,7
4,1.453069,1,3,115,2,1,7
4,0.788467,0,2,76,4,10,1
4,0.977708,0,1,44,2,11,1
4,1.492363,0,3,72,3,12,4
4,0.898037,0,2,5,1,10,2
4,0.833801,0,1,54,3,10,2
4,1.892324,0,3,47,2,12,3
4,0.859652,0,1,97,1,2,5
4,1.225108,0,2,100,1,2,6
4,0.792875,0,2,122,3,4,5
4,1.036139,0,2,52,3,10,1
4,1.194194,0,3,127,3,4,7
4,0.979034,0,1,20,1,11,1
4,1.203546,0,3,105,1,2,7
4,0.754243,0,1,42,2,10,1
4,1.409655,0,1,140,4,3,6
4,0.590863,0,2,28,2,10,2
4,1.406585,0,2,65,3,10,1
4,0.935036,0,3,9,1,11,3
4,2.434193,0,2,75,4,9,8
4,0.691612,0,2,38,2,9,2
4,1.343554,0,3,11,1,12,4
4,1.169915,0,2,14,1,9,2
4,1.032682,0,2,50,3,9,1
4,1.675554,0,1,130,3,4,6
4,1.320359,0,1,30,2,10,8
4,0.827293,0,1,32,2,11,8
4,0.859949,0,1,58,3,12,2
4,1.236422,1,3,129,3,4,7
4,0.776799,0,2,112,2,1,6
4,1.007124,1,3,59,3,12,3
4,0.881315,0,1,73,4,9,2
4,1.484698,0,3,81,4,11,4
4,0.907003,0,2,135,4,3,5
4,1.063029,0,1,1,1,9,1
4,0.809013,0,2,51,3,9,8
4,1.064925,0,3,84,4,12,3
4,1.13407,0,1,68,3,11,2
4,0.846948,0,2,89,4,10,1
4,1.867062,0,2,134,4,3,5
4,1.116402,0,1,116,2,1,5
4,1.043763,0,3,48,2,12,4
4,1.138238,0,1,94,4,12,2
4,1.173435,0,3,31,2,11,4
4,0.94155,0,3,119,2,1,7
4,1.353555,0,3,93,4,11,3
4,0.889282,0,1,142,4,3,6
4,0.895169,0,1,25,2,9,1
4,1.231007,0,3,67,3,11,3
4,1.430097,0,2,87,4,9,1
4,1.399895,1,2,39,2,9,2
4,0.890308,0,2,41,2,10,2
4,1.108661,0,3,69,3,11,3
4,0.659451,0,2,113,2,1,6
4,0.938764,0,2,15,1,9,2
4,0.857822,0,2,86,4,9,8
4,1.319972,0,3,132,3,4,7
4,0.955385,0,1,90,4,10,2
4,0.780738,0,2,88,4,10,8
4,1.158413,0,3,19,1,11,3
4,1.328337,0,3,23,1,12,3
4,0.979369,0,3,131,3,4,7
4,1.430462,0,2,123,3,4,5
4,1.488304,0,1,70,3,12,2
4,1.357612,0,3,21,1,11,4
4,0.999759,0,3,117,2,1,7
4,0.97566,0,3,57,3,11,4
4,1.008997,0,3,24,1,12,4
4,0.839256,0,2,111,2,1,6
4,0.771278,0,2,76,4,10,1
4,1.246811,0,2,29,2,10,2
4,1.542148,0,3,129,3,4,7
4,0.974548,0,2,100,1,2,6
4,0.789012,0,2,38,2,9,2
4,0.835288,0,1,58,3,12,2
4,1.329574,0,3,57,3,11,4
4,1.229334,0,1,114,2,1,5
4,0.944737,0,2,77,4,10,8
4,1.195753,0,1,32,2,11,8
4,1.34804,0,3,120,2,1,7
4,0.95073,0,1,66,3,10,2
4,1.167644,0,1,106,1,2,5
4,0.779845,0,1,142,4,3,6
4,0.93019,1,1,18,1,10,1
4,0.885738,0,1,42,2,10,1
4,0.908756,0,2,39,2,9,2
4,0.779082,0,2,122,3,4,5
4,1.271348,0,3,72,3,12,4
4,0.996885,0,1,61,3,9,2
4,0.894332,0,1,116,2,1,5
4,0.919063,0,3,84,4,12,3
4,0.77774,1,2,64,3,10,8
4,0.98787,0,3,143,4,3,7
4,0.972615,0,3,105,1,2,7
4,1.282283,0,2,99,1,2,6
4,1.095838,0,2,75,4,9,8
4,0.852142,0,1,70,3,12,2
4,0.889998,0,1,133,4,3,6
4,0.626619,0,2,135,4,3,5
4,1.272757,1,1,49,3,9,2
4,1.03377,0,3,96,4,12,4
4,1.255112,0,2,89,4,10,1
4,1.031325,0,3,107,1,2,7
4,0.902209,0,3,31,2,11,4
4,0.826171,0,3,21,1,11,4
4,1.058507,0,2,14,1,9,2
4,1.064004,0,1,13,1,9,8
4,1.144034,0,2,101,1,2,6
4,0.918253,1,2,87,4,9,1
4,1.050821,0,1,78,4,10,2
4,0.885514,0,3,9,1,11,3
4,0.754972,0,3,19,1,11,3
4,0.910958,0,1,109,2,1,5
4,0.900843,0,1,140,4,3,6
4,0.82025,0,3,7,1,11,4
4,1.040677,1,2,113,2,1,6
4,1.16489,0,1,118,2,1,5
4,0.856711,0,1,121,3,4,6
4,0.905148,0,1,54,3,10,2
4,0.892315,0,1,37,2,9,8
4,1.464398,0,1,80,4,11,2
4,0.63393,0,1,82,4,12,2
4,0.976965,0,3,23,1,12,3
4,0.850052,0,1,102,1,2,5
4,1.110555,1,2,15,1,9,2
4,0.981385,0,1,104,1,2,5
4,1.272793,0,3,24,1,12,4
4,0.845466,0,2,112,2,1,6
4,0.984883,0,3,71,3,12,4
4,0.809503,0,1,22,1,12,8
4,0.754024,0,3,67,3,11,3
4,1.107648,0,3,139,4,3,7
4,0.895902,0,3,144,4,3,7
4,0.827334,0,3,131,3,4,7
4,1.377876,1,2,2,1,9,2
4,0.691279,0,2,17,1,10,2
4,0.878969,0,3,59,3,12,3
4,0.932639,0,1,44,2,11,1
4,1.734089,1,2,62,3,9,8
4,1.026381,1,1,126,3,4,6
4,1.099045,0,1,90,4,10,2
4,1.212338,1,2,27,2,9,2
4,0.816472,0,1,34,2,12,1
4,1.222091,0,2,134,4,3,5
4,1.19408,0,1,92,4,11,2
4,0.914786,0,3,60,3,12,3
4,1.944781,1,2,125,3,4,5
4,1.297643,0,2,136,4,3,5
4,0.756888,0,1,138,4,3,6
4,0.810707,0,2,5,1,10,2
4,0.854541,0,1,25,2,9,1
4,1.062535,0,3,117,2,1,7
4,1.132545,0,1,128,3,4,6
4,0.885825,0,3,108,1,2,7
4,0.941697,0,2,123,3,4,5
4,0.735809,0,1,130,3,4,6
4,0.908216,0,3,103,1,2,7
4,0.89512,0,1,97,1,2,5
4,1.584323,0,2,98,1,2,6
4,1.137138,0,3,12,1,12,3
4,1.163833,0,1,30,2,10,8
4,0.769111,0,1,68,3,11,2
4,1.146012,0,2,88,4,10,8
4,1.060236,0,3,43,2,11,3
4,0.810527,0,1,8,1,11,8
4,0.978122,0,3,115,2,1,7
4,1.156289,0,3,33,2,11,3
4,1.029976,0,3,119,2,1,7
4,0.813591,0,1,56,3,11,2
4,1.565178,0,2,16,1,10,2
4,0.799171,0,2,63,3,9,1
4,0.945866,0,3,36,2,12,3
4,1.108602,0,3,93,4,11,3
4,0.688233,0,3,91,4,11,3
4,0.821324,0,3,127,3,4,7
4,0.779564,0,2,3,1,9,2
4,0.951375,0,3,141,4,3,7
4,1.105517,0,3,35,2,12,4
4,1.734111,0,2,124,3,4,5
4,0.716625,0,2,52,3,10,1
4,0.900879,0,3,69,3,11,3
4,0.629149,0,2,4,1,10,2
4,1.457489,0,2,26,2,9,2
4,0.840022,0,2,50,3,9,1
4,0.899604,0,3,55,3,11,4
4,1.735727,0,3,11,1,12,4
4,0.821768,0,2,137,4,3,5
4,0.777837,0,1,6,1,10,8
4,0.954944,0,3,48,2,12,4
4,1.316203,1,3,95,4,12,4
4,1.116488,0,1,73,4,9,2
4,1.479474,0,2,40,2,10,2
4,0.947774,0,1,94,4,12,2
4,0.68694,0,2,51,3,9,8
4,0.940097,0,3,45,2,11,4
4,0.613654,0,2,65,3,10,1
4,1.188809,0,3,132,3,4,7
4,0.825602,0,2,110,2,1,6
4,0.677622,0,2,86,4,9,8
4,0.885377,0,1,10,1,12,1
4,0.931692,0,2,74,4,9,1
4,0.910983,0,3,83,4,12,3
4,1.075768,1,1,85,4,9,2
4,0.976894,0,1,20,1,11,1
4,0.838208,1,1,46,2,12,8
4,0.932335,0,3,81,4,11,4
4,1.791309,0,2,41,2,10,2
4,0.864489,0,2,53,3,10,8
4,1.661588,1,3,79,4,11,4
4,0.884603,0,1,1,1,9,1
4,1.058175,0,3,47,2,12,3
4,0.902826,0,2,28,2,10,2
4,0.783949,0,2,112,2,1,6
4,0.91544,0,2,52,3,10,1
4,0.995436,0,1,61,3,9,2
4,1.060064,0,3,60,3,12,3
4,0.834033,0,3,79,4,11,4
4,0.728378,0,2,62,3,9,8
4,0.912959,0,3,67,3,11,3
4,1.508821,0,3,43,2,11,3
4,1.177391,0,3,11,1,12,4
4,2.401549,1,2,51,3,9,8
4,0.874002,0,2,3,1,9,2
4,1.263784,0,2,27,2,9,2
4,1.42071,0,2,17,1,10,2
4,0.880496,0,2,65,3,10,1
4,0.829131,0,1,44,2,11,1
4,0.961988,0,2,74,4,9,1
4,0.654346,0,1,78,4,10,2
4,1.068789,0,3,131,3,4,7
4,1.449657,1,3,117,2,1,7
4,0.628468,0,2,2,1,9,2
4,0.951858,0,2,40,2,10,2
4,1.114836,0,3,129,3,4,7
4,1.206289,1,1,118,2,1,5
4,0.877421,0,2,137,4,3,5
4,0.909266,0,2,77,4,10,8
4,1.032525,0,3,36,2,12,3
4,0.730956,0,2,135,4,3,5
4,0.938886,0,3,107,1,2,7
4,1.197842,0,3,19,1,11,3
4,0.989648,0,3,144,4,3,7
4,0.857978,0,2,89,4,10,1
4,0.598756,0,1,56,3,11,2
4,1.110492,0,1,6,1,10,8
4,0.705509,0,1,25,2,9,1
4,0.98349,0,1,32,2,11,8
4,0.584453,0,1,138,4,3,6
4,0.709758,0,1,66,3,10,2
4,0.80157,0,1,85,4,9,2
4,0.93687,0,2,122,3,4,5
4,0.804785,0,3,55,3,11,4
4,0.61943,0,2,110,2,1,6
4,0.894725,0,3,91,4,11,3
4,0.850332,0,1,73,4,9,2
4,0.721282,0,2,100,1,2,6
4,1.162581,0,3,12,1,12,3
4,2.196628,0,2,86,4,9,8
4,0.716786,0,2,75,4,9,8
4,0.710032,0,1,121,3,4,6
4,1.032267,0,3,83,4,12,3
4,1.287273,0,3,9,1,11,3
4,1.002861,0,1,37,2,9,8
4,0.803494,0,2,4,1,10,2
4,0.89147,0,3,72,3,12,4
4,1.003989,0,1,97,1,2,5
4,0.702179,0,1,104,1,2,5
4,0.621155,0,2,14,1,9,2
4,0.769955,0,1,116,2,1,5
4,0.799775,0,2,87,4,9,1
4,0.618886,0,2,111,2,1,6
4,1.272775,0,2,134,4,3,5
4,1.160301,0,3,132,3,4,7
4,0.755907,0,1,130,3,4,6
4,0.711864,0,1,128,3,4,6
4,0.903952,0,2,113,2,1,6
4,0.803402,0,1,90,4,10,2
4,0.779646,0,1,133,4,3,6
4,0.833743,0,3,71,3,12,4
4,0.751,0,1,70,3,12,2
4,0.828191,0,3,7,1,11,4
4,0.640447,0,2,98,1,2,6
4,0.897844,0,3,31,2,11,4
4,0.893979,0,1,92,4,11,2
4,0.794332,0,3,93,4,11,3
4,1.13892,0,2,26,2,9,2
4,1.004644,0,1,126,3,4,6
4,0.751315,0,1,114,2,1,5
4,0.789628,0,1,140,4,3,6
4,1.270322,1,3,45,2,11,4
4,1.099422,0,2,39,2,9,2
4,0.93544,0,1,8,1,11,8
4,0.974149,0,2,15,1,9,2
4,0.664073,0,2,53,3,10,8
4,0.837145,0,3,84,4,12,3
4,0.85827,0,1,68,3,11,2
4,0.798977,0,2,28,2,10,2
4,1.031889,1,1,142,4,3,6
4,0.625519,0,2,29,2,10,2
4,0.976724,0,3,48,2,12,4
4,1.138108,1,3,119,2,1,7
4,0.676521,0,2,88,4,10,8
4,0.731905,0,1,1,1,9,1
4,0.855614,0,3,24,1,12,4
4,0.742112,0,3,103,1,2,7
4,1.464265,0,1,109,2,1,5
4,1.060297,0,2,123,3,4,5
4,0.792049,0,1,80,4,11,2
4,0.728169,0,3,127,3,4,7
4,0.669864,0,2,16,1,10,2
4,0.802945,0,2,50,3,9,1
4,0.86544,0,3,59,3,12,3
4,0.798148,0,3,95,4,12,4
4,0.649867,0,2,38,2,9,2
4,0.688064,0,1,10,1,12,1
4,0.753663,0,3,139,4,3,7
4,0.739548,0,3,57,3,11,4
4,1.38415,0,1,106,1,2,5
4,0.782716,0,2,76,4,10,1
4,0.688054,0,3,108,1,2,7
4,1.32263,0,2,125,3,4,5
4,1.038079,0,2,101,1,2,6
4,0.761739,0,1,82,4,12,2
4,1.020019,0,3,21,1,11,4
4,1.107405,0,3,33,2,11,3
4,0.798852,0,3,96,4,12,4
4,0.690292,0,1,94,4,12,2
4,0.761534,0,3,47,2,12,3
4,0.766901,0,2,136,4,3,5
4,0.946743,0,3,23,1,12,3
4,0.75659,0,2,64,3,10,8
4,0.694366,0,3,35,2,12,4
4,0.764859,0,2,124,3,4,5
4,0.690382,0,1,46,2,12,8
4,0.81496,0,3,81,4,11,4
4,0.61138,0,1,54,3,10,2
4,0.768711,0,1,13,1,9,8
4,0.681518,0,2,41,2,10,2
4,0.958384,0,1,102,1,2,5
4,0.735792,0,2,63,3,9,1
4,0.847246,0,1,18,1,10,1
4,0.933704,0,1,42,2,10,1
4,0.596183,0,2,99,1,2,6
4,0.734562,0,1,30,2,10,8
4,0.882581,0,1,58,3,12,2
4,1.225935,0,1,49,3,9,2
4,0.868758,0,3,120,2,1,7
4,0.751457,0,1,20,1,11,1
4,1.023413,1,1,34,2,12,1
4,0.894361,0,3,115,2,1,7
4,0.850024,0,3,143,4,3,7
4,0.835258,0,2,5,1,10,2
4,0.693703,0,3,69,3,11,3
4,0.602083,0,1,22,1,12,8
4,0.65066,0,3,105,1,2,7
4,0.831824,0,3,141,4,3,7
4,0.676447,0,2,111,2,1,6
4,0.662845,0,1,82,4,12,2
4,0.684904,0,1,22,1,12,8
4,0.834079,0,1,78,4,10,2
4,0.769564,0,1,109,2,1,5
4,0.711678,0,2,89,4,10,1
4,1.137708,0,2,3,1,9,2
4,0.592939,0,1,97,1,2,5
4,1.290878,0,3,11,1,12,4
4,1.134698,0,1,32,2,11,8
4,1.754949,0,2,87,4,9,1
4,0.786226,0,2,38,2,9,2
4,0.635315,0,2,74,4,9,1
4,0.668154,0,1,20,1,11,1
4,1.247632,0,3,57,3,11,4
4,0.853527,0,3,43,2,11,3
4,0.67384,0,2,26,2,9,2
4,0.611103,0,1,118,2,1,5
4,0.902191,0,3,141,4,3,7
4,0.662364,0,2,124,3,4,5
4,0.723031,0,2,112,2,1,6
4,0.947951,0,3,36,2,12,3
4,0.677676,0,3,96,4,12,4
4,1.302968,0,2,136,4,3,5
4,0.813545,0,3,71,3,12,4
4,0.589689,0,1,94,4,12,2
4,0.872421,0,3,107,1,2,7
4,0.926909,0,3,9,1,11,3
4,0.981718,0,1,114,2,1,5
4,0.988512,0,3,108,1,2,7
4,0.672402,0,2,98,1,2,6
4,0.798273,0,3,95,4,12,4
4,0.591801,0,2,52,3,10,1
4,0.622367,0,2,16,1,10,2
4,0.941789,0,1,85,4,9,2
4,0.602739,0,1,106,1,2,5
4,0.765885,0,3,55,3,11,4
4,0.726758,0,3,21,1,11,4
4,0.611747,0,2,125,3,4,5
4,0.89927,0,1,1,1,9,1
4,0.742479,0,3,84,4,12,3
4,1.047148,0,1,102,1,2,5
4,0.738372,0,2,99,1,2,6
4,0.707321,0,3,115,2,1,7
4,1.095121,0,3,132,3,4,7
4,0.842971,0,1,34,2,12,1
4,0.731822,0,3,60,3,12,3
4,0.838619,0,2,75,4,9,8
4,0.700327,0,3,69,3,11,3
4,0.76104,0,1,13,1,9,8
4,0.666498,0,2,27,2,9,2
4,1.032565,0,1,140,4,3,6
4,0.685463,0,3,12,1,12,3
4,0.793793,0,3,31,2,11,4
4,0.969836,0,1,54,3,10,2
4,0.828067,0,2,86,4,9,8
4,0.826971,0,2,14,1,9,2
4,0.786284,0,1,61,3,9,2
4,0.760623,0,2,88,4,10,8
4,0.969731,0,3,93,4,11,3
4,1.027922,0,3,33,2,11,3
4,0.672085,0,2,134,4,3,5
4,0.791209,0,3,83,4,12,3
4,0.797629,0,2,63,3,9,1
4,0.873004,0,1,142,4,3,6
4,0.612055,0,1,58,3,12,2
4,0.957533,0,2,53,3,10,8
4,0.634626,0,2,41,2,10,2
4,0.713815,0,2,4,1,10,2
4,0.89273,0,1,25,2,9,1
4,0.598424,0,2,64,3,10,8
4,0.774617,0,1,68,3,11,2
4,0.791767,0,3,129,3,4,7
4,0.743302,0,2,40,2,10,2
4,0.932098,0,3,105,1,2,7
4,0.990608,0,3,91,4,11,3
4,0.597533,0,2,65,3,10,1
4,0.885274,0,3,24,1,12,4
4,0.840446,0,1,133,4,3,6
4,0.787218,0,1,70,3,12,2
4,0.721758,0,1,10,1,12,1
4,0.783042,0,1,116,2,1,5
4,0.567107,0,2,77,4,10,8
4,1.296114,1,3,47,2,12,3
4,0.721577,0,2,5,1,10,2
4,0.832823,0,3,35,2,12,4
4,0.743288,0,3,67,3,11,3
4,0.701078,0,2,50,3,9,1
4,0.797351,0,1,6,1,10,8
4,1.007815,1,2,29,2,10,2
4,1.062879,0,2,15,1,9,2
4,0.757437,0,3,48,2,12,4
4,0.80765,0,3,79,4,11,4
4,0.806352,0,2,28,2,10,2
4,0.707155,0,2,113,2,1,6
4,0.936968,0,1,128,3,4,6
4,0.766855,0,3,143,4,3,7
4,0.735424,0,1,44,2,11,1
4,0.772436,0,2,123,3,4,5
4,0.695438,0,2,110,2,1,6
4,0.903871,0,2,100,1,2,6
4,0.641426,0,2,137,4,3,5
4,0.807461,0,1,56,3,11,2
4,0.825438,0,1,30,2,10,8
4,0.696862,0,3,127,3,4,7
4,0.604533,0,3,103,1,2,7
4,0.628557,0,2,17,1,10,2
4,0.652176,0,1,90,4,10,2
4,0.664184,0,1,126,3,4,6
4,0.674057,0,3,119,2,1,7
4,0.687602,0,3,120,2,1,7
4,0.664531,0,1,18,1,10,1
4,0.603106,0,2,62,3,9,8
4,0.83454,0,2,101,1,2,6
4,0.651614,0,2,51,3,9,8
4,0.600827,0,1,73,4,9,2
4,0.794574,0,1,37,2,9,8
4,0.81125,0,3,7,1,11,4
4,0.627045,0,3,139,4,3,7
4,1.143093,0,2,76,4,10,1
4,0.644219,0,1,130,3,4,6
4,1.065677,1,1,66,3,10,2
4,0.874236,0,1,42,2,10,1
4,0.887377,0,3,45,2,11,4
4,1.028743,0,3,59,3,12,3
4,1.809738,0,2,39,2,9,2
4,0.733283,0,1,46,2,12,8
4,1.440225,0,1,8,1,11,8
4,0.854819,0,3,81,4,11,4
4,0.801178,0,2,135,4,3,5
4,0.791381,0,1,92,4,11,2
4,0.718026,0,2,122,3,4,5
4,0.882163,0,1,121,3,4,6
4,0.897061,0,1,49,3,9,2
4,0.767513,0,3,131,3,4,7
4,0.800585,0,3,72,3,12,4
4,0.704369,0,2,2,1,9,2
4,0.740451,0,3,117,2,1,7
4,0.792447,0,1,80,4,11,2
4,0.64408,0,1,104,1,2,5
4,0.745288,0,3,19,1,11,3
4,1.201462,0,1,138,4,3,6
4,0.619013,0,3,23,1,12,3
4,1.074269,0,3,144,4,3,7
5,1.94517,0,3,144,4,3,7
5,1.587024,0,3,85,4,9,3
5,1.286576,0,2,28,2,10,2
5,0.902188,0,1,74,4,9,2
5,1.174943,0,1,58,3,12,2
5,0.875593,0,1,110,2,1,5
5,1.33273,1,3,73,4,9,4
5,1.852858,0,3,30,2,10,3
5,1.730996,0,1,101,1,2,5
5,1.228865,0,2,68,3,11,8
5,1.146988,0,1,106,1,2,5
5,1.17889,0,1,50,3,9,2
5,0.938958,0,1,107,1,2,5
5,1.240568,0,3,24,1,12,3
5,1.617931,0,1,131,3,4,6
5,1.530241,0,1,89,4,10,2
5,1.052163,0,1,22,1,12,8
5,1.343198,1,1,125,3,4,6
5,1.31262,0,2,16,1,10,2
5,0.848749,0,2,103,1,2,6
5,1.037042,0,1,71,3,12,2
5,0.810187,0,2,139,4,3,5
5,1.075845,0,3,120,2,1,7
5,1.518503,0,1,95,4,12,2
5,2.147017,0,1,137,4,3,6
5,0.967669,0,2,80,4,11,1
5,1.011001,0,3,1,1,9,3
5,0.963094,0,3,102,1,2,7
5,1.758059,0,3,75,4,9,4
5,1.324094,0,2,128,3,4,5
5,1.202479,0,3,72,3,12,4
5,1.443808,0,3,6,1,10,3
5,0.917701,0,3,48,2,12,3
5,0.875484,0,2,9,1,11,2
5,0.983255,0,3,99,1,2,7
5,0.796345,0,2,4,1,10,2
5,0.781741,0,2,76,4,10,8
5,0.803466,0,2,93,4,11,1
5,1.145233,0,1,77,4,10,2
5,1.041165,0,1,119,2,1,5
5,0.810547,0,2,79,4,11,1
5,1.137533,0,1,142,4,3,6
5,0.952921,0,3,54,3,10,3
5,0.696748,0,1,62,3,9,2
5,1.127132,0,3,132,3,4,7
5,0.928922,0,2,91,4,11,8
5,0.75007,0,2,116,2,1,6
5,1.105735,0,3,51,3,9,4
5,0.889376,0,1,70,3,12,2
5,1.352186,0,1,29,2,10,8
5,1.936839,1,2,129,3,4,5
5,1.112337,0,2,57,3,11,8
5,0.977813,0,3,27,2,9,4
5,0.850388,0,2,44,2,11,2
5,1.249695,0,2,112,2,1,6
5,1.012517,0,3,39,2,9,3
5,1.059589,0,1,98,1,2,5
5,1.026543,0,2,40,2,10,2
5,0.927671,0,1,38,2,9,1
5,1.491157,0,1,23,1,12,8
5,1.121353,0,2,104,1,2,6
5,1.987041,0,2,81,4,11,8
5,0.903923,0,1,11,1,12,1
5,2.129644,0,1,17,1,10,1
5,1.218641,0,3,63,3,9,3
5,1.090828,0,1,130,3,4,6
5,1.346681,0,1,47,2,12,8
5,0.902701,0,1,86,4,9,2
5,1.199679,0,1,65,3,10,2
5,0.923327,0,3,90,4,10,4
5,0.799258,0,1,94,4,12,2
5,1.003628,0,3,133,4,3,7
5,0.810245,0,2,117,2,1,6
5,1.554135,0,3,15,1,9,3
5,1.628023,0,2,7,1,11,2
5,1.190396,0,1,83,4,12,2
5,1.110424,0,2,67,3,11,8
5,0.88396,0,3,87,4,9,3
5,1.177301,0,2,88,4,10,1
5,1.075941,0,2,100,1,2,6
5,1.232237,0,3,97,1,2,7
5,1.029857,0,3,138,4,3,7
5,0.812324,0,2,20,1,11,2
5,0.757007,0,2,92,4,11,8
5,1.91555,0,1,35,2,12,1
5,1.14994,0,3,135,4,3,7
5,1.265683,0,2,56,3,11,1
5,1.607434,1,1,2,1,9,8
5,1.112773,0,3,108,1,2,7
5,1.053637,0,1,82,4,12,2
5,1.02969,0,3,3,1,9,4
5,1.04978,0,3,37,2,9,4
5,1.627929,0,1,113,2,1,5
5,1.088583,0,1,59,3,12,2
5,1.697285,0,1,5,1,10,8
5,1.200987,0,1,41,2,10,1
5,1.131956,0,1,118,2,1,5
5,1.199834,0,1,46,2,12,8
5,0.819704,0,3,18,1,10,4
5,1.044029,0,3,12,1,12,4
5,1.518235,0,2,64,3,10,1
5,1.329975,0,3,66,3,10,4
5,0.995565,1,2,43,2,11,2
5,0.829317,0,1,14,1,9,1
5,0.900183,0,3,60,3,12,3
5,0.85028,0,3,111,2,1,7
5,2.541994,0,1,134,4,3,6
5,1.378144,1,3,109,2,1,7
5,1.088544,0,1,53,3,10,2
5,1.432304,0,3,126,3,4,7
5,0.90001,0,2,8,1,11,2
5,0.910492,0,2,140,4,3,5
5,0.89581,0,2,31,2,11,2
5,0.920738,0,1,26,2,9,8
5,0.770661,1,3,84,4,12,3
5,0.963617,0,2,115,2,1,6
5,1.621169,0,1,122,3,4,6
5,1.697413,1,3,49,3,9,4
5,1.139302,1,2,105,1,2,6
5,1.27308,0,3,25,2,9,3
5,1.109703,0,2,33,2,11,2
5,1.217249,0,2,127,3,4,5
5,0.959967,0,2,19,1,11,2
5,1.981988,0,3,78,4,10,3
5,0.89162,0,2,124,3,4,5
5,1.106802,0,3,42,2,10,4
5,0.905488,0,3,36,2,12,4
5,0.888566,0,2,21,1,11,2
5,0.973355,0,2,136,4,3,5
5,1.443723,0,3,61,3,9,3
5,0.909686,0,3,121,3,4,7
5,0.734995,0,1,143,4,3,6
5,0.659462,0,2,141,4,3,5
5,1.604087,0,3,123,3,4,7
5,0.888204,0,1,10,1,12,1
5,1.714034,1,3,13,1,9,4
5,1.277307,0,3,96,4,12,4
5,0.866737,0,2,69,3,11,1
5,1.008186,0,3,114,2,1,7
5,1.273779,0,2,55,3,11,1
5,0.888836,0,2,32,2,11,2
5,0.778864,0,2,52,3,10,8
5,1.280997,0,1,34,2,12,1
5,1.027129,0,2,45,2,11,2
5,0.684701,0,2,16,1,10,2
5,1.164715,0,2,43,2,11,2
5,0.855281,0,2,31,2,11,2
5,0.740122,0,2,112,2,1,6
5,0.982204,0,1,119,2,1,5
5,0.955955,0,3,54,3,10,3
5,0.753285,0,1,125,3,4,6
5,0.78721,0,2,136,4,3,5
5,0.791712,0,2,116,2,1,6
5,0.925144,0,1,74,4,9,2
5,1.154972,0,3,121,3,4,7
5,0.906956,0,1,118,2,1,5
5,0.855664,0,1,86,4,9,2
5,1.295579,0,3,25,2,9,3
5,0.943199,0,3,111,2,1,7
5,0.885991,0,3,87,4,9,3
5,0.999707,0,3,123,3,4,7
5,1.330396,0,1,83,4,12,2
5,1.234311,0,1,134,4,3,6
5,1.321091,0,1,106,1,2,5
5,0.968004,0,3,24,1,12,3
5,0.790366,0,2,40,2,10,2
5,0.742059,0,2,52,3,10,8
5,0.720835,0,1,70,3,12,2
5,0.531465,0,2,44,2,11,2
5,0.861342,0,2,28,2,10,2
5,1.174352,0,1,110,2,1,5
5,0.764314,0,1,53,3,10,2
5,0.958209,0,3,66,3,10,4
5,0.874868,0,1,77,4,10,2
5,0.740541,0,1,46,2,12,8
5,0.800862,0,3,138,4,3,7
5,0.833455,0,3,3,1,9,4
5,0.925553,0,2,93,4,11,1
5,1.011077,0,1,58,3,12,2
5,0.816817,1,2,91,4,11,8
5,1.062953,0,3,97,1,2,7
5,0.639552,0,1,142,4,3,6
5,0.855831,0,1,10,1,12,1
5,0.760273,0,1,101,1,2,5
5,0.885336,0,3,78,4,10,3
5,0.803433,0,2,129,3,4,5
5,0.795795,0,2,81,4,11,8
5,0.68603,0,1,95,4,12,2
5,0.635205,0,1,38,2,9,1
5,0.666595,0,1,22,1,12,8
5,1.248881,0,3,120,2,1,7
5,0.853482,0,2,100,1,2,6
5,0.797382,0,3,84,4,12,3
5,0.616379,1,2,140,4,3,5
5,1.026206,1,2,115,2,1,6
5,1.348977,0,2,57,3,11,8
5,1.026469,0,3,99,1,2,7
5,0.705638,0,2,69,3,11,1
5,0.835811,0,1,143,4,3,6
5,0.746778,0,2,9,1,11,2
5,0.802819,0,2,64,3,10,1
5,1.147008,0,3,48,2,12,3
5,0.869393,0,1,89,4,10,2
5,1.119442,0,3,144,4,3,7
5,1.264738,0,3,126,3,4,7
5,0.90774,0,2,20,1,11,2
5,0.819271,0,1,131,3,4,6
5,0.772366,0,1,17,1,10,1
5,0.692635,0,2,79,4,11,1
5,0.946524,0,2,117,2,1,6
5,0.827118,0,2,103,1,2,6
5,0.773264,0,1,82,4,12,2
5,0.733004,0,2,19,1,11,2
5,1.052252,0,3,135,4,3,7
5,1.043907,0,3,85,4,9,3
5,0.972409,0,2,4,1,10,2
5,1.051611,0,1,98,1,2,5
5,0.948217,0,3,90,4,10,4
5,0.818041,0,1,113,2,1,5
5,0.980272,0,3,73,4,9,4
5,1.443053,1,3,102,1,2,7
5,0.792886,0,2,55,3,11,1
5,0.916688,0,3,49,3,9,4
5,0.911489,0,1,29,2,10,8
5,2.403846,0,3,37,2,9,4
5,2.300127,1,1,14,1,9,1
5,1.17982,1,1,94,4,12,2
5,0.70048,0,2,7,1,11,2
5,1.215151,0,1,130,3,4,6
5,0.911641,0,3,96,4,12,4
5,1.097311,0,1,65,3,10,2
5,0.860385,0,1,107,1,2,5
5,0.842029,0,1,50,3,9,2
5,0.934955,0,1,71,3,12,2
5,0.898379,0,2,127,3,4,5
5,1.133151,0,3,12,1,12,4
5,1.408899,0,2,88,4,10,1
5,0.823185,0,1,5,1,10,8
5,0.77187,0,1,26,2,9,8
5,0.910862,0,1,62,3,9,2
5,0.814539,0,3,36,2,12,4
5,0.837279,0,3,30,2,10,3
5,0.666213,0,1,41,2,10,1
5,0.877552,0,3,42,2,10,4
5,0.992394,0,1,137,4,3,6
5,0.80003,1,3,75,4,9,4
5,0.699837,0,2,128,3,4,5
5,0.723883,0,1,122,3,4,6
5,0.889706,0,2,33,2,11,2
5,0.778599,0,2,139,4,3,5
5,0.993326,0,3,39,2,9,3
5,0.9467,0,2,104,1,2,6
5,1.02934,0,1,35,2,12,1
5,1.451443,0,2,56,3,11,1
5,1.018518,0,3,61,3,9,3
5,1.720027,1,1,2,1,9,8
5,0.731933,0,2,92,4,11,8
5,0.83618,0,1,23,1,12,8
5,1.118423,0,1,59,3,12,2
5,0.904987,0,2,76,4,10,8
5,0.943094,0,3,63,3,9,3
5,0.698192,0,2,21,1,11,2
5,1.369634,0,3,13,1,9,4
5,1.137676,0,3,1,1,9,3
5,1.359577,0,3,108,1,2,7
5,1.273175,1,2,67,3,11,8
5,1.020997,0,3,51,3,9,4
5,1.017339,0,3,18,1,10,4
5,0.719162,0,3,132,3,4,7
5,0.83422,0,3,133,4,3,7
5,0.829097,0,2,141,4,3,5
5,0.970893,0,3,72,3,12,4
5,1.282415,0,3,109,2,1,7
5,1.300981,0,3,27,2,9,4
5,0.632738,0,2,124,3,4,5
5,0.949402,0,1,47,2,12,8
5,0.682889,0,1,11,1,12,1
5,0.637692,0,2,45,2,11,2
5,0.802373,0,2,8,1,11,2
5,1.565827,1,2,32,2,11,2
5,0.877785,0,3,15,1,9,3
5,1.167761,1,1,34,2,12,1
5,0.934576,0,2,105,1,2,6
5,0.921624,0,2,80,4,11,1
5,1.114209,0,3,114,2,1,7
5,1.148588,0,3,6,1,10,3
5,0.944424,0,2,68,3,11,8
5,1.160795,0,3,60,3,12,3
5,0.766631,0,2,40,2,10,2
5,0.999742,0,3,102,1,2,7
5,1.265421,0,3,37,2,9,4
5,0.822296,0,1,50,3,9,2
5,1.262324,0,3,114,2,1,7
5,1.046543,0,3,48,2,12,3
5,0.670745,0,2,81,4,11,8
5,0.683422,0,1,101,1,2,5
5,0.653643,0,2,100,1,2,6
5,0.762812,0,2,80,4,11,1
5,0.860647,0,1,41,2,10,1
5,0.852312,0,3,15,1,9,3
5,0.68247,0,2,105,1,2,6
5,0.960537,0,1,74,4,9,2
5,1.081163,1,2,19,1,11,2
5,0.604255,0,1,137,4,3,6
5,0.581268,0,2,33,2,11,2
5,0.741837,0,2,57,3,11,8
5,1.088295,0,2,43,2,11,2
5,2.521417,1,1,94,4,12,2
5,1.234838,0,1,47,2,12,8
5,0.71985,0,1,107,1,2,5
5,1.008422,0,2,129,3,4,5
5,1.501545,1,1,89,4,10,2
5,0.987348,0,3,66,3,10,4
5,2.770539,1,2,79,4,11,1
5,0.93031,0,2,141,4,3,5
5,0.762014,0,1,59,3,12,2
5,0.872261,0,1,142,4,3,6
5,1.116544,0,3,42,2,10,4
5,0.874195,0,1,113,2,1,5
5,1.042179,0,3,61,3,9,3
5,1.37243,0,3,85,4,9,3
5,1.028244,0,2,4,1,10,2
5,0.82705,0,1,62,3,9,2
5,1.352928,0,2,117,2,1,6
5,1.136944,1,3,6,1,10,3
5,0.808852,0,2,124,3,4,5
5,1.318001,0,1,95,4,12,2
5,0.813467,0,1,11,1,12,1
5,0.717067,0,2,9,1,11,2
5,1.463761,0,3,51,3,9,4
5,0.892333,0,1,122,3,4,6
5,1.17545,0,3,30,2,10,3
5,0.802966,0,1,17,1,10,1
5,1.247372,1,3,13,1,9,4
5,0.92737,0,3,1,1,9,3
5,0.856135,0,1,46,2,12,8
5,0.790181,0,1,118,2,1,5
5,0.818796,0,1,119,2,1,5
5,1.077314,0,3,24,1,12,3
5,0.815238,0,3,84,4,12,3
5,1.507309,0,1,65,3,10,2
5,1.172776,1,1,38,2,9,1
5,0.80003,0,3,123,3,4,7
5,0.613409,0,1,34,2,12,1
5,0.759219,0,1,10,1,12,1
5,1.1639,0,2,116,2,1,6
5,0.906589,0,3,27,2,9,4
5,0.784984,0,2,21,1,11,2
5,2.020797,0,3,99,1,2,7
5,1.156621,0,1,2,1,9,8
5,0.614138,0,1,134,4,3,6
5,0.62783,0,2,140,4,3,5
5,0.859371,0,1,77,4,10,2
5,0.69629,0,2,8,1,11,2
5,0.61866,0,2,136,4,3,5
5,0.645308,0,2,28,2,10,2
5,0.830378,0,3,3,1,9,4
5,0.818792,0,2,45,2,11,2
5,0.630983,0,1,23,1,12,8
5,0.73766,0,3,25,2,9,3
5,0.887586,0,3,36,2,12,4
5,1.104083,0,1,22,1,12,8
5,1.014595,0,1,26,2,9,8
5,1.140037,0,2,128,3,4,5
5,0.859405,0,1,98,1,2,5
5,1.328608,1,1,143,4,3,6
5,1.077229,0,3,126,3,4,7
5,0.703123,0,2,7,1,11,2
5,0.853043,0,3,144,4,3,7
5,0.724948,0,3,108,1,2,7
5,0.717369,0,3,133,4,3,7
5,1.112845,0,3,60,3,12,3
5,0.674609,0,3,97,1,2,7
5,0.783046,0,2,16,1,10,2
5,0.754765,0,2,115,2,1,6
5,0.844113,0,3,109,2,1,7
5,1.076505,0,3,132,3,4,7
5,0.77602,0,3,12,1,12,4
5,1.170257,1,1,14,1,9,1
5,0.865029,0,3,90,4,10,4
5,1.127037,0,1,29,2,10,8
5,0.889125,0,3,75,4,9,4
5,0.873322,0,3,39,2,9,3
5,0.997727,0,3,121,3,4,7
5,0.761036,1,2,103,1,2,6
5,1.073759,0,3,135,4,3,7
5,0.77208,1,2,76,4,10,8
5,0.735279,0,2,93,4,11,1
5,1.206016,0,1,70,3,12,2
5,0.623619,0,1,106,1,2,5
5,0.801412,0,2,139,4,3,5
5,0.805951,0,2,67,3,11,8
5,0.860825,0,1,125,3,4,6
5,0.571071,0,2,56,3,11,1
5,1.286192,0,3,138,4,3,7
5,0.678331,0,2,20,1,11,2
5,0.816397,0,3,120,2,1,7
5,1.497376,0,1,5,1,10,8
5,0.614681,0,2,92,4,11,8
5,1.195589,0,2,55,3,11,1
5,0.804347,0,3,18,1,10,4
5,0.852,0,1,83,4,12,2
5,1.321753,0,2,64,3,10,1
5,0.90475,0,3,63,3,9,3
5,0.678876,0,2,69,3,11,1
5,0.690075,0,1,86,4,9,2
5,0.70958,0,3,72,3,12,4
5,0.793237,1,3,73,4,9,4
5,0.643913,0,3,96,4,12,4
5,1.028764,0,2,52,3,10,8
5,0.874976,0,3,87,4,9,3
5,0.671364,0,1,82,4,12,2
5,0.843031,0,2,31,2,11,2
5,0.62287,0,1,110,2,1,5
5,0.801259,0,1,58,3,12,2
5,1.307531,0,2,104,1,2,6
5,0.91421,0,1,53,3,10,2
5,0.806251,0,2,88,4,10,1
5,0.721927,0,2,91,4,11,8
5,1.116259,0,2,112,2,1,6
5,1.004979,0,1,130,3,4,6
5,0.629063,0,2,127,3,4,5
5,1.132382,0,3,78,4,10,3
5,0.626182,0,2,68,3,11,8
5,1.171963,0,1,131,3,4,6
5,1.329836,0,1,71,3,12,2
5,1.107486,0,3,54,3,10,3
5,0.791416,0,2,32,2,11,2
5,0.970322,0,3,111,2,1,7
5,0.775055,0,1,35,2,12,1
5,0.728467,0,3,49,3,9,4
5,0.794479,0,2,44,2,11,2
5,2.414024,1,1,89,4,10,2
5,0.755258,0,2,7,1,11,2
5,0.74176,0,3,123,3,4,7
5,0.817707,0,3,84,4,12,3
5,0.960421,0,3,66,3,10,4
5,0.791886,1,1,94,4,12,2
5,0.62158,0,2,100,1,2,6
5,1.054236,1,3,144,4,3,7
5,0.946299,0,2,140,4,3,5
5,1.047415,0,1,131,3,4,6
5,1.623602,1,3,25,2,9,3
5,1.227457,0,3,49,3,9,4
5,0.679777,0,3,111,2,1,7
5,0.967867,0,2,104,1,2,6
5,1.066801,0,2,43,2,11,2
5,0.962443,0,3,1,1,9,3
5,0.80524,0,3,96,4,12,4
5,0.789035,0,3,114,2,1,7
5,0.951379,0,3,135,4,3,7
5,0.688642,0,2,32,2,11,2
5,1.273491,1,3,6,1,10,3
5,0.796043,0,3,48,2,12,3
5,0.686373,0,2,116,2,1,6
5,0.519502,0,2,93,4,11,1
5,0.738908,0,1,53,3,10,2
5,1.155783,0,3,121,3,4,7
5,0.64543,0,1,101,1,2,5
5,0.958092,1,3,109,2,1,7
5,0.702087,0,2,8,1,11,2
5,1.224767,0,1,34,2,12,1
5,1.241086,1,3,30,2,10,3
5,0.575182,0,1,137,4,3,6
5,1.31213,0,1,119,2,1,5
5,1.941697,1,1,38,2,9,1
5,0.671054,0,2,28,2,10,2
5,0.913602,0,2,52,3,10,8
5,0.678537,0,1,17,1,10,1
5,0.700403,0,2,56,3,11,1
5,0.919505,0,2,81,4,11,8
5,0.912659,0,3,99,1,2,7
5,0.690478,0,2,92,4,11,8
5,0.66541,0,2,68,3,11,8
5,0.863854,0,3,78,4,10,3
5,0.878262,0,1,22,1,12,8
5,1.290738,0,3,42,2,10,4
5,0.602256,0,2,91,4,11,8
5,0.809103,0,2,16,1,10,2
5,1.016599,0,1,118,2,1,5
5,0.982073,0,1,86,4,9,2
5,0.705959,0,1,62,3,9,2
5,0.684744,0,1,71,3,12,2
5,0.736565,0,2,141,4,3,5
5,1.016207,0,1,35,2,12,1
5,0.621984,0,1,83,4,12,2
5,0.657578,0,2,80,4,11,1
5,0.797247,0,1,11,1,12,1
5,1.03273,0,1,77,4,10,2
5,0.711379,0,1,70,3,12,2
5,0.826171,0,3,75,4,9,4
5,0.949511,0,2,40,2,10,2
5,1.048376,0,3,63,3,9,3
5,0.658698,0,1,59,3,12,2
5,1.457257,1,2,31,2,11,2
5,0.845049,1,1,2,1,9,8
5,0.852764,0,2,57,3,11,8
5,1.65761,1,2,45,2,11,2
5,0.903068,0,3,133,4,3,7
5,0.875549,0,2,79,4,11,1
5,1.8964,0,2,19,1,11,2
5,1.010488,0,3,37,2,9,4
5,0.875846,0,3,85,4,9,3
5,0.838173,0,2,129,3,4,5
5,0.87253,0,2,21,1,11,2
5,0.996908,0,3,72,3,12,4
5,0.711208,0,3,36,2,12,4
5,0.846691,0,1,134,4,3,6
5,1.247491,1,2,33,2,11,2
5,0.885576,0,2,9,1,11,2
5,0.741697,0,3,132,3,4,7
5,1.340431,0,3,87,4,9,3
5,0.890598,0,3,126,3,4,7
5,1.166952,0,2,64,3,10,1
5,0.666879,0,2,124,3,4,5
5,0.661913,0,2,105,1,2,6
5,0.737994,0,1,41,2,10,1
5,0.660511,0,1,143,4,3,6
5,0.600207,0,1,29,2,10,8
5,0.6752,0,2,44,2,11,2
5,0.903772,0,3,12,1,12,4
5,0.76564,0,1,58,3,12,2
5,0.74759,0,3,18,1,10,4
5,0.896255,0,1,5,1,10,8
5,1.294656,0,3,39,2,9,3
5,0.940003,0,1,107,1,2,5
5,0.896479,0,3,13,1,9,4
5,1.289367,0,1,98,1,2,5
5,1.001893,1,1,122,3,4,6
5,0.71569,0,2,67,3,11,8
5,0.797783,0,1,46,2,12,8
5,0.790549,0,1,26,2,9,8
5,0.984202,0,1,95,4,12,2
5,1.280749,0,1,106,1,2,5
5,1.019078,0,2,136,4,3,5
5,1.795423,1,1,14,1,9,1
5,0.936602,0,2,76,4,10,8
5,0.772638,0,1,130,3,4,6
5,1.318049,0,3,3,1,9,4
5,1.487791,0,1,65,3,10,2
5,0.90446,0,2,128,3,4,5
5,1.415605,0,3,15,1,9,3
5,0.893972,0,1,23,1,12,8
5,1.228381,0,3,102,1,2,7
5,0.81122,0,1,142,4,3,6
5,0.953055,0,1,113,2,1,5
5,0.714686,0,1,82,4,12,2
5,0.738696,0,3,108,1,2,7
5,0.65204,0,2,55,3,11,1
5,0.737642,0,2,115,2,1,6
5,0.955853,0,3,73,4,9,4
5,0.66909,0,2,139,4,3,5
5,1.017347,0,1,10,1,12,1
5,0.95837,0,1,47,2,12,8
5,0.596753,0,1,125,3,4,6
5,0.784867,1,3,51,3,9,4
5,0.981272,0,3,60,3,12,3
5,0.979017,0,3,27,2,9,4
5,0.975114,0,1,74,4,9,2
5,0.948764,0,3,97,1,2,7
5,0.955557,0,3,138,4,3,7
5,0.702192,0,3,61,3,9,3
5,0.679692,0,1,110,2,1,5
5,1.093141,0,3,90,4,10,4
5,1.038961,0,2,103,1,2,6
5,1.1643,0,2,69,3,11,1
5,0.76725,0,2,20,1,11,2
5,1.110768,0,3,24,1,12,3
5,0.753089,0,2,4,1,10,2
5,0.771656,0,1,50,3,9,2
5,0.845827,0,2,88,4,10,1
5,0.919963,0,3,120,2,1,7
5,0.765464,1,2,117,2,1,6
5,1.062257,0,3,54,3,10,3
5,0.633499,0,2,127,3,4,5
5,0.655178,0,2,112,2,1,6
6,2.048628,0,1,104,1,2,5
6,3.912178,0,2,43,2,11,2
6,3.772297,0,1,80,4,11,2
6,3.429381,0,3,106,1,2,7
6,2.804717,0,1,74,4,9,2
6,3.211929,1,2,91,4,11,8
6,1.161487,0,2,72,3,12,1
6,2.307189,1,3,46,2,12,3
6,1.767263,0,3,87,4,9,4
6,1.696954,1,1,29,2,10,8
6,2.333507,0,3,9,1,11,3
6,3.943077,0,1,20,1,11,8
6,1.39021,0,1,32,2,11,1
6,1.447503,0,2,52,3,10,1
6,5.185843,1,3,129,3,4,7
6,4.242627,0,3,22,1,12,3
6,3.776458,0,3,63,3,9,4
6,4.218354,0,1,1,1,9,8
6,3.713224,0,3,111,2,1,7
6,1.385684,0,1,8,1,11,1
6,1.437075,0,1,56,3,11,2
6,0.965125,1,2,28,2,10,2
6,3.148104,0,3,57,3,11,3
6,1.120872,0,2,95,4,12,1
6,1.836766,1,1,85,4,9,2
6,1.018668,0,2,124,3,4,5
6,3.091283,0,1,128,3,4,6
6,1.46316,0,1,44,2,11,8
6,1.24494,0,2,120,2,1,6
6,1.923183,0,3,6,1,10,3
6,1.309947,0,2,48,2,12,2
6,2.268261,0,3,138,4,3,7
6,1.882563,0,3,66,3,10,3
6,2.183841,0,1,110,2,1,5
6,1.101919,0,1,38,2,9,8
6,2.201556,1,2,59,3,12,8
6,0.941456,1,2,107,1,2,6
6,1.458063,0,1,26,2,9,1
6,1.239224,0,1,137,4,3,6
6,1.655054,1,2,35,2,12,2
6,1.081334,0,1,101,1,2,5
6,1.676487,1,2,67,3,11,8
6,0.881575,1,2,4,1,10,2
6,1.687002,1,3,21,1,11,4
6,5.395427,0,3,39,2,9,3
6,1.971905,1,3,42,2,10,4
6,1.78846,0,1,14,1,9,8
6,1.814145,0,3,15,1,9,3
6,1.268773,1,2,40,2,10,2
6,1.330658,0,2,64,3,10,8
6,1.501791,0,1,62,3,9,2
6,1.530172,0,3,81,4,11,3
6,2.293818,0,2,16,1,10,2
6,1.761432,0,3,93,4,11,4
6,3.009397,0,2,103,1,2,6
6,1.899876,0,3,114,2,1,7
6,1.751294,0,2,12,1,12,2
6,2.228183,0,2,7,1,11,2
6,1.427431,0,3,102,1,2,7
6,1.729325,0,2,132,3,4,5
6,1.946522,0,3,33,2,11,3
6,1.724339,1,3,90,4,10,3
6,1.93389,0,1,121,3,4,6
6,2.554428,0,1,25,2,9,8
6,3.748328,1,3,78,4,10,4
6,1.121827,0,2,108,1,2,6
6,0.968772,1,3,94,4,12,3
6,1.594836,1,1,65,3,10,2
6,2.001045,0,3,126,3,4,7
6,2.185094,0,2,79,4,11,1
6,1.596539,0,2,47,2,12,2
6,1.472058,0,2,31,2,11,2
6,0.773486,0,2,136,4,3,5
6,1.159843,1,1,113,2,1,5
6,1.568743,0,3,123,3,4,7
6,1.280243,0,1,89,4,10,2
6,1.050093,0,1,133,4,3,6
6,1.073546,0,1,140,4,3,6
6,1.211342,0,2,119,2,1,6
6,1.742928,0,3,142,4,3,7
6,1.100878,0,1,53,3,10,2
6,3.203812,0,1,97,1,2,5
6,1.502341,0,1,50,3,9,2
6,1.849667,0,1,13,1,9,1
6,1.235482,1,3,135,4,3,7
6,1.333394,0,2,139,4,3,5
6,1.801164,0,1,2,1,9,1
6,1.129184,1,3,3,1,9,4
6,1.060078,0,2,84,4,12,8
6,0.954345,0,2,83,4,12,8
6,0.721789,0,2,24,1,12,2
6,1.02664,0,1,73,4,9,2
6,2.053237,0,1,86,4,9,2
6,1.405588,0,1,68,3,11,2
6,1.12285,0,2,131,3,4,5
6,1.49116,1,3,130,3,4,7
6,2.110813,0,3,18,1,10,4
6,1.021682,0,1,109,2,1,5
6,1.172176,0,2,71,3,12,1
6,1.852582,0,3,105,1,2,7
6,1.475084,0,2,100,1,2,6
6,1.626352,0,3,99,1,2,7
6,1.82856,0,2,143,4,3,5
6,2.179056,1,1,125,3,4,6
6,2.086665,0,2,88,4,10,8
6,1.187543,1,3,82,4,12,4
6,1.638785,0,1,61,3,9,2
6,1.522765,0,1,92,4,11,2
6,2.606935,1,1,5,1,10,8
6,0.939551,0,1,41,2,10,1
6,1.451381,0,1,134,4,3,6
6,1.845681,1,2,144,4,3,5
6,1.243165,0,3,58,3,12,4
6,4.391566,1,1,77,4,10,2
6,1.272123,0,3,117,2,1,7
6,1.395729,0,2,96,4,12,1
6,1.262504,0,3,118,2,1,7
6,1.130246,0,1,122,3,4,6
6,1.424604,0,2,76,4,10,1
6,1.836482,1,2,19,1,11,2
6,1.260126,0,3,45,2,11,4
6,1.336191,0,2,23,1,12,2
6,0.812294,0,1,98,1,2,5
6,1.053205,0,3,70,3,12,3
6,1.429,0,1,17,1,10,1
6,1.017755,0,3,141,4,3,7
6,2.202711,1,2,112,2,1,6
6,0.693212,0,2,55,3,11,1
6,1.853927,0,3,51,3,9,3
6,1.37098,0,2,60,3,12,8
6,1.249526,0,2,127,3,4,5
6,1.871854,0,3,30,2,10,3
6,2.269319,0,3,27,2,9,4
6,1.21003,0,3,10,1,12,4
6,1.036972,0,1,116,2,1,5
6,1.945932,0,1,37,2,9,1
6,0.965506,1,2,115,2,1,6
6,0.846685,0,2,11,1,12,2
6,1.372585,0,2,36,2,12,2
6,1.434174,0,3,34,2,12,4
6,1.1364,0,3,54,3,10,4
6,1.139198,1,3,69,3,11,4
6,1.70231,0,3,75,4,9,3
6,0.809601,1,1,49,3,9,2
6,0.982106,0,1,125,3,4,6
6,0.765786,0,2,52,3,10,1
6,1.687632,0,3,78,4,10,4
6,0.996978,0,2,136,4,3,5
6,1.195979,0,2,100,1,2,6
6,0.783578,0,2,112,2,1,6
6,0.851037,0,1,2,1,9,1
6,1.21282,0,2,131,3,4,5
6,2.154031,0,1,1,1,9,8
6,1.075997,0,2,12,1,12,2
6,1.225292,0,3,105,1,2,7
6,0.685931,0,2,43,2,11,2
6,1.439013,0,3,81,4,11,3
6,0.718485,0,1,13,1,9,1
6,1.694884,0,3,18,1,10,4
6,1.099591,0,2,143,4,3,5
6,1.418856,0,3,93,4,11,4
6,1.055082,0,1,121,3,4,6
6,0.941079,0,2,71,3,12,1
6,0.763573,0,2,4,1,10,2
6,2.094734,0,3,82,4,12,4
6,0.995994,0,1,32,2,11,1
6,0.752312,0,1,56,3,11,2
6,1.033838,0,3,45,2,11,4
6,0.601817,0,2,107,1,2,6
6,1.066993,0,2,103,1,2,6
6,1.036654,0,3,118,2,1,7
6,1.011629,0,1,101,1,2,5
6,0.850347,1,3,34,2,12,4
6,0.86415,0,3,99,1,2,7
6,1.018834,1,1,122,3,4,6
6,0.725638,0,1,80,4,11,2
6,1.162216,0,1,140,4,3,6
6,1.045236,0,3,9,1,11,3
6,1.211097,0,2,84,4,12,8
6,1.015907,0,2,72,3,12,1
6,0.972517,0,3,30,2,10,3
6,0.722662,0,2,55,3,11,1
6,0.85193,0,3,114,2,1,7
6,0.785149,0,2,60,3,12,8
6,0.786056,0,3,123,3,4,7
6,1.347072,0,3,94,4,12,3
6,0.814184,1,3,138,4,3,7
6,0.85339,0,2,36,2,12,2
6,1.435502,0,2,64,3,10,8
6,1.154168,0,3,42,2,10,4
6,1.318584,0,2,108,1,2,6
6,1.721329,0,3,46,2,12,3
6,0.643152,0,1,73,4,9,2
6,0.980697,0,3,141,4,3,7
6,1.461499,0,3,6,1,10,3
6,1.684079,0,3,70,3,12,3
6,1.288494,1,2,91,4,11,8
6,0.724485,0,2,35,2,12,2
6,0.927233,0,2,95,4,12,1
6,1.324249,0,1,29,2,10,8
6,1.207204,0,3,117,2,1,7
6,1.935706,1,3,126,3,4,7
6,1.618283,1,1,5,1,10,8
6,0.720996,0,2,132,3,4,5
6,1.889765,0,3,87,4,9,4
6,2.189967,0,3,33,2,11,3
6,1.478719,1,1,62,3,9,2
6,1.811862,0,3,63,3,9,4
6,1.010622,0,2,120,2,1,6
6,0.642857,0,1,26,2,9,1
6,1.047145,1,2,76,4,10,1
6,1.698536,0,1,53,3,10,2
6,0.947029,0,1,74,4,9,2
6,1.456559,0,1,137,4,3,6
6,1.407852,0,1,109,2,1,5
6,2.110524,1,1,8,1,11,1
6,0.812524,1,3,142,4,3,7
6,1.56892,0,2,115,2,1,6
6,1.180821,0,1,92,4,11,2
6,0.773191,0,2,31,2,11,2
6,1.326497,0,3,90,4,10,3
6,1.433701,0,3,102,1,2,7
6,0.656503,0,2,59,3,12,8
6,1.421922,0,3,106,1,2,7
6,1.04585,0,1,44,2,11,8
6,1.467829,1,1,65,3,10,2
6,0.921322,0,2,40,2,10,2
6,1.196671,0,1,61,3,9,2
6,0.989321,0,1,20,1,11,8
6,0.685295,0,1,86,4,9,2
6,0.659419,0,2,144,4,3,5
6,0.730241,0,1,68,3,11,2
6,1.069042,0,3,51,3,9,3
6,1.141389,0,1,41,2,10,1
6,1.120948,0,3,3,1,9,4
6,0.849221,0,2,79,4,11,1
6,0.802823,0,3,15,1,9,3
6,1.242302,0,2,23,1,12,2
6,1.753441,0,3,111,2,1,7
6,1.802359,0,1,17,1,10,1
6,1.067246,1,3,135,4,3,7
6,0.934916,0,1,37,2,9,1
6,0.843626,0,2,83,4,12,8
6,0.721075,0,1,97,1,2,5
6,0.700006,0,2,48,2,12,2
6,1.503925,0,2,88,4,10,8
6,1.027817,0,2,28,2,10,2
6,0.887491,0,2,24,1,12,2
6,1.097702,0,1,134,4,3,6
6,1.016366,0,2,67,3,11,8
6,0.781248,0,2,127,3,4,5
6,0.936724,1,3,66,3,10,3
6,1.254126,1,2,11,1,12,2
6,0.822214,0,1,85,4,9,2
6,1.783234,1,2,16,1,10,2
6,1.44764,1,3,22,1,12,3
6,1.223666,0,2,96,4,12,1
6,0.802877,0,1,49,3,9,2
6,0.865621,1,3,129,3,4,7
6,1.183191,0,3,10,1,12,4
6,0.992035,0,3,58,3,12,4
6,0.930989,0,1,98,1,2,5
6,1.430453,0,3,54,3,10,4
6,1.641607,0,1,89,4,10,2
6,1.024577,0,3,69,3,11,4
6,0.902138,0,1,133,4,3,6
6,0.778698,0,1,104,1,2,5
6,0.831539,0,1,128,3,4,6
6,0.988094,0,2,124,3,4,5
6,1.456174,0,3,27,2,9,4
6,1.406088,0,3,39,2,9,3
6,2.290329,0,1,116,2,1,5
6,1.965943,1,1,77,4,10,2
6,0.85835,0,1,113,2,1,5
6,0.974036,0,3,75,4,9,3
6,0.877403,0,1,110,2,1,5
6,0.683596,0,2,139,4,3,5
6,1.161728,0,3,57,3,11,3
6,1.811496,0,2,119,2,1,6
6,0.786282,0,2,7,1,11,2
6,1.702083,0,3,130,3,4,7
6,1.873657,0,2,19,1,11,2
6,1.720203,1,1,50,3,9,2
6,0.873363,0,1,25,2,9,8
6,1.111229,0,3,21,1,11,4
6,1.306629,0,2,47,2,12,2
6,1.279084,0,1,14,1,9,8
6,0.644115,0,1,38,2,9,8
6,1.516887,1,3,130,3,4,7
6,2.559908,0,3,111,2,1,7
6,0.993814,0,1,50,3,9,2
6,0.882233,0,1,20,1,11,8
6,0.902332,0,2,72,3,12,1
6,0.639899,0,2,40,2,10,2
6,0.795951,0,1,125,3,4,6
6,0.654748,0,2,43,2,11,2
6,1.123805,0,1,8,1,11,1
6,1.404989,0,3,123,3,4,7
6,1.092642,1,3,46,2,12,3
6,0.793022,0,2,88,4,10,8
6,1.361912,0,2,28,2,10,2
6,0.792923,0,1,101,1,2,5
6,1.176403,1,1,113,2,1,5
6,1.188022,0,1,13,1,9,1
6,1.962078,0,3,93,4,11,4
6,0.858481,0,1,98,1,2,5
6,1.13623,0,1,128,3,4,6
6,1.364021,0,3,78,4,10,4
6,0.853018,1,3,106,1,2,7
6,1.267337,1,3,51,3,9,3
6,1.216073,0,3,9,1,11,3
6,0.749536,0,2,79,4,11,1
6,1.067487,0,2,35,2,12,2
6,0.917063,0,2,124,3,4,5
6,1.264438,0,3,58,3,12,4
6,1.061952,0,3,126,3,4,7
6,0.867353,1,3,70,3,12,3
6,0.820837,0,1,116,2,1,5
6,1.146685,0,3,138,4,3,7
6,0.941674,0,3,18,1,10,4
6,1.047614,0,3,54,3,10,4
6,0.728506,0,1,73,4,9,2
6,0.81503,0,2,47,2,12,2
6,1.090494,0,1,121,3,4,6
6,1.066024,0,3,82,4,12,4
6,1.143362,0,1,38,2,9,8
6,0.573753,0,2,139,4,3,5
6,2.024487,1,3,22,1,12,3
6,1.495005,0,3,90,4,10,3
6,1.419774,1,3,102,1,2,7
6,2.147706,0,3,94,4,12,3
6,2.198273,1,1,29,2,10,8
6,0.681748,0,2,103,1,2,6
6,0.722003,0,2,23,1,12,2
6,1.847214,0,1,92,4,11,2
6,1.197771,0,3,135,4,3,7
6,1.117849,0,3,66,3,10,3
6,0.76402,0,2,76,4,10,1
6,1.351781,0,2,64,3,10,8
6,0.520243,0,2,115,2,1,6
6,0.964757,0,1,37,2,9,1
6,1.271768,0,2,36,2,12,2
6,0.925218,0,1,61,3,9,2
6,0.848376,1,1,25,2,9,8
6,1.446107,0,1,5,1,10,8
6,0.813452,0,1,77,4,10,2
6,1.120811,0,3,81,4,11,3
6,1.452881,0,3,45,2,11,4
6,1.130817,1,3,118,2,1,7
6,1.126521,0,3,3,1,9,4
6,0.920178,0,2,127,3,4,5
6,0.907378,1,3,129,3,4,7
6,0.703939,0,2,60,3,12,8
6,0.571659,0,1,56,3,11,2
6,1.008439,0,1,2,1,9,1
6,1.520416,0,1,1,1,9,8
6,1.236215,1,3,117,2,1,7
6,1.122362,0,3,10,1,12,4
6,0.933806,0,2,83,4,12,8
6,0.766029,1,1,26,2,9,1
6,1.156069,0,1,85,4,9,2
6,1.597402,1,3,63,3,9,4
6,0.870093,0,2,67,3,11,8
6,1.243952,0,3,42,2,10,4
6,0.96781,0,2,4,1,10,2
6,0.816597,0,2,12,1,12,2
6,1.37422,0,3,141,4,3,7
6,1.439614,1,3,69,3,11,4
6,0.717945,0,1,80,4,11,2
6,1.136195,0,3,57,3,11,3
6,0.790716,0,1,104,1,2,5
6,0.638195,0,1,14,1,9,8
6,1.76635,0,1,53,3,10,2
6,1.190149,0,3,142,4,3,7
6,0.935315,0,2,84,4,12,8
6,1.385546,0,3,33,2,11,3
6,0.974902,1,1,122,3,4,6
6,0.730561,0,1,137,4,3,6
6,0.687184,0,2,59,3,12,8
6,0.707829,0,2,24,1,12,2
6,0.984291,0,3,114,2,1,7
6,1.424858,0,3,75,4,9,3
6,0.954541,0,2,55,3,11,1
6,1.025045,0,1,86,4,9,2
6,1.880761,0,3,105,1,2,7
6,1.000418,1,2,120,2,1,6
6,0.775655,0,1,49,3,9,2
6,0.760487,0,1,74,4,9,2
6,0.666976,0,2,119,2,1,6
6,0.867486,0,2,95,4,12,1
6,1.168477,0,3,21,1,11,4
6,0.710945,0,1,110,2,1,5
6,1.830371,0,2,7,1,11,2
6,0.712608,0,2,16,1,10,2
6,0.868759,0,1,89,4,10,2
6,1.085316,0,1,32,2,11,1
6,1.117673,0,3,99,1,2,7
6,0.745613,0,2,107,1,2,6
6,0.947418,0,3,15,1,9,3
6,0.661894,0,2,31,2,11,2
6,0.995541,0,3,39,2,9,3
6,0.740492,0,2,91,4,11,8
6,0.728594,0,2,71,3,12,1
6,0.78081,0,1,65,3,10,2
6,1.350025,0,1,17,1,10,1
6,1.416521,0,1,62,3,9,2
6,1.041667,0,1,41,2,10,1
6,0.655465,0,2,48,2,12,2
6,1.850243,0,2,108,1,2,6
6,0.702941,0,2,52,3,10,1
6,0.715591,0,1,97,1,2,5
6,0.948031,0,1,134,4,3,6
6,0.957173,0,2,96,4,12,1
6,1.279101,1,2,112,2,1,6
6,0.562317,0,2,143,4,3,5
6,0.897778,0,2,131,3,4,5
6,1.083382,0,3,30,2,10,3
6,0.992358,0,3,34,2,12,4
6,0.648914,0,2,100,1,2,6
6,1.273224,0,3,27,2,9,4
6,0.911361,0,2,11,1,12,2
6,0.79187,0,2,144,4,3,5
6,1.134455,0,3,6,1,10,3
6,0.936674,0,3,87,4,9,4
6,0.666734,0,2,19,1,11,2
6,0.776826,0,1,68,3,11,2
6,0.641871,0,1,44,2,11,8
6,0.662473,0,1,133,4,3,6
6,3.230231,1,2,132,3,4,5
6,0.661139,0,2,136,4,3,5
6,1.117816,0,1,140,4,3,6
6,0.890616,0,1,109,2,1,5
6,1.042351,0,1,80,4,11,2
6,0.779079,0,1,85,4,9,2
6,0.873438,1,3,90,4,10,3
6,0.647147,0,2,23,1,12,2
6,0.728114,0,2,55,3,11,1
6,1.892161,0,3,42,2,10,4
6,1.096381,0,3,46,2,12,3
6,1.414091,1,2,47,2,12,2
6,1.013878,1,3,130,3,4,7
6,0.681234,0,1,128,3,4,6
6,0.651757,0,1,50,3,9,2
6,0.888296,0,1,104,1,2,5
6,0.831927,0,1,37,2,9,1
6,1.114928,0,3,102,1,2,7
6,0.845434,1,2,12,1,12,2
6,1.184904,0,1,8,1,11,1
6,0.972638,0,2,124,3,4,5
6,0.941375,0,1,56,3,11,2
6,0.613632,0,2,132,3,4,5
6,0.700774,0,1,14,1,9,8
6,0.842592,0,1,137,4,3,6
6,0.604968,0,1,38,2,9,8
6,0.684345,1,3,66,3,10,3
6,1.564059,0,1,89,4,10,2
6,1.055373,0,3,21,1,11,4
6,0.941569,0,3,18,1,10,4
6,0.914088,0,1,74,4,9,2
6,1.075993,0,3,6,1,10,3
6,1.029371,0,2,120,2,1,6
6,1.090754,0,3,111,2,1,7
6,0.840525,0,2,119,2,1,6
6,0.907037,0,3,118,2,1,7
6,0.970174,0,2,136,4,3,5
6,0.646677,0,2,48,2,12,2
6,0.643567,0,2,131,3,4,5
6,0.807987,0,2,139,4,3,5
6,0.701996,0,2,4,1,10,2
6,0.954238,0,3,39,2,9,3
6,0.988497,0,3,123,3,4,7
6,0.996754,0,3,54,3,10,4
6,0.821317,0,1,77,4,10,2
6,0.860195,0,2,76,4,10,1
6,1.117485,0,3,81,4,11,3
6,0.639162,0,2,144,4,3,5
6,1.966912,0,3,3,1,9,4
6,1.087065,0,1,92,4,11,2
6,0.82258,0,2,40,2,10,2
6,1.021272,1,1,5,1,10,8
6,1.261276,1,1,61,3,9,2
6,0.962722,0,3,106,1,2,7
6,0.655867,0,1,110,2,1,5
6,0.709612,0,1,62,3,9,2
6,0.998765,1,2,115,2,1,6
6,0.891434,0,2,60,3,12,8
6,0.972548,0,1,134,4,3,6
6,1.221691,0,3,63,3,9,4
6,1.029574,0,3,93,4,11,4
6,0.643648,0,1,113,2,1,5
6,0.926267,0,3,10,1,12,4
6,1.601748,0,1,25,2,9,8
6,1.41428,0,1,122,3,4,6
6,0.628288,0,2,143,4,3,5
6,1.761908,0,1,73,4,9,2
6,1.420312,1,1,97,1,2,5
6,1.048551,0,1,13,1,9,1
6,1.229808,0,3,138,4,3,7
6,1.197348,0,3,78,4,10,4
6,1.253868,0,1,49,3,9,2
6,0.656466,0,2,103,1,2,6
6,0.840221,0,1,32,2,11,1
6,0.651941,0,2,108,1,2,6
6,0.923913,0,3,58,3,12,4
6,0.86436,0,1,41,2,10,1
6,1.059481,0,1,125,3,4,6
6,1.964824,1,3,141,4,3,7
6,1.854403,1,1,68,3,11,2
6,0.679671,0,2,107,1,2,6
6,0.763697,0,2,112,2,1,6
6,1.565949,0,2,88,4,10,8
6,0.880687,0,3,15,1,9,3
6,0.692037,0,2,84,4,12,8
6,0.945809,0,2,72,3,12,1
6,0.622601,0,2,83,4,12,8
6,1.045672,0,3,87,4,9,4
6,1.309107,0,1,1,1,9,8
6,1.127461,0,1,29,2,10,8
6,1.019308,1,3,105,1,2,7
6,0.68019,0,1,2,1,9,1
6,1.221311,0,3,70,3,12,3
6,2.388947,0,3,30,2,10,3
6,0.665327,0,2,79,4,11,1
6,1.138375,0,3,94,4,12,3
6,0.614387,0,2,52,3,10,1
6,0.895918,1,3,33,2,11,3
6,0.844701,0,3,75,4,9,3
6,0.938775,0,2,36,2,12,2
6,1.266459,0,3,129,3,4,7
6,0.962755,0,1,53,3,10,2
6,0.924533,0,2,16,1,10,2
6,2.20616,0,3,117,2,1,7
6,1.222081,0,3,114,2,1,7
6,1.013588,0,1,20,1,11,8
6,1.181655,0,3,34,2,12,4
6,1.533849,1,3,99,1,2,7
6,1.206592,0,2,100,1,2,6
6,0.954199,1,1,65,3,10,2
6,0.814028,0,1,26,2,9,1
6,1.300915,0,3,126,3,4,7
6,0.776913,0,2,59,3,12,8
6,0.56929,0,2,95,4,12,1
6,0.737903,0,1,109,2,1,5
6,1.126594,0,3,9,1,11,3
6,0.885334,0,2,24,1,12,2
6,1.262998,0,3,51,3,9,3
6,1.193183,0,2,127,3,4,5
6,0.771996,0,1,98,1,2,5
6,0.968266,0,1,86,4,9,2
6,0.981767,0,3,22,1,12,3
6,0.758326,1,2,67,3,11,8
6,1.001962,0,1,133,4,3,6
6,1.068994,0,3,57,3,11,3
6,0.820572,0,1,116,2,1,5
6,1.069976,0,2,91,4,11,8
6,0.796621,1,2,11,1,12,2
6,0.873224,0,2,19,1,11,2
6,1.203995,0,1,121,3,4,6
6,0.691699,0,2,31,2,11,2
6,1.592251,1,3,27,2,9,4
6,1.161277,0,3,135,4,3,7
6,0.619388,0,2,71,3,12,1
6,0.701336,0,2,43,2,11,2
6,0.69009,0,2,28,2,10,2
6,1.128613,1,1,101,1,2,5
6,0.591421,0,2,96,4,12,1
6,0.941633,0,2,64,3,10,8
6,0.714315,0,1,17,1,10,1
6,1.233345,0,3,142,4,3,7
6,0.688272,1,3,82,4,12,4
6,1.540018,0,3,45,2,11,4
6,0.630758,0,2,35,2,12,2
6,0.774721,0,3,69,3,11,4
6,0.696076,0,1,44,2,11,8
6,0.756862,1,1,140,4,3,6
6,0.826323,0,2,7,1,11,2
7,1.29235,1,1,18,1,10,8
7,1.876243,0,2,73,4,9,8
7,2.007443,1,1,54,3,10,2
7,1.547533,0,3,77,4,10,3
7,1.240627,0,3,82,4,12,4
7,1.557468,0,1,66,3,10,2
7,1.631235,0,3,17,1,10,4
7,1.202645,0,1,19,1,11,8
7,1.226934,0,1,43,2,11,8
7,0.666975,0,2,21,1,11,2
7,1.447264,0,3,130,3,4,7
7,1.187538,1,2,124,3,4,5
7,1.490936,1,3,101,1,2,7
7,0.84588,0,2,40,2,10,2
7,0.90785,0,2,57,3,11,1
7,1.092176,0,2,117,2,1,6
7,1.295807,0,1,126,3,4,6
7,1.32095,0,1,131,3,4,6
7,0.972398,0,2,98,1,2,6
7,1.166809,0,2,62,3,9,1
7,1.800391,1,1,6,1,10,1
7,1.168528,0,3,75,4,9,4
7,2.168778,0,2,37,2,9,2
7,1.279363,0,1,11,1,12,8
7,1.399262,0,3,123,3,4,7
7,1.116443,0,1,95,4,12,2
7,1.232197,0,3,22,1,12,4
7,1.213986,0,2,1,1,9,2
7,0.921395,0,1,20,1,11,1
7,0.985501,0,1,56,3,11,2
7,0.765897,0,1,8,1,11,8
7,1.992781,0,2,100,1,2,6
7,1.824148,0,3,3,1,9,4
7,0.787366,0,2,38,2,9,2
7,1.831797,1,1,91,4,11,2
7,1.307224,0,1,68,3,11,2
7,1.37718,1,3,5,1,10,3
7,1.375148,0,3,15,1,9,3
7,1.551115,0,2,88,4,10,8
7,2.082837,0,3,10,1,12,3
7,0.703058,0,2,121,3,4,5
7,1.66164,1,3,96,4,12,4
7,0.738053,0,1,127,3,4,6
7,1.245482,1,1,143,4,3,6
7,1.480094,0,2,25,2,9,2
7,0.751191,0,2,28,2,10,2
7,1.295866,0,2,133,4,3,5
7,0.929904,0,2,69,3,11,8
7,0.717203,0,2,26,2,9,2
7,1.486516,0,3,111,2,1,7
7,1.360885,0,1,115,2,1,5
7,1.217985,0,1,139,4,3,6
7,0.827016,1,3,135,4,3,7
7,1.086578,0,1,59,3,12,2
7,1.15115,0,3,125,3,4,7
7,1.96043,0,2,136,4,3,5
7,1.023641,0,3,46,2,12,4
7,0.833046,0,1,80,4,11,2
7,0.785879,0,1,35,2,12,8
7,1.840278,0,1,140,4,3,6
7,1.268611,1,3,34,2,12,3
7,1.246428,0,2,81,4,11,1
7,0.945026,0,3,24,1,12,3
7,1.145602,0,1,47,2,12,1
7,0.889115,0,1,83,4,12,2
7,1.131268,0,3,120,2,1,7
7,1.043459,0,1,67,3,11,2
7,0.742227,0,2,4,1,10,2
7,1.132351,0,2,2,1,9,2
7,1.365122,1,2,13,1,9,2
7,0.944163,0,3,144,4,3,7
7,0.882986,0,2,85,4,9,1
7,0.984766,0,2,93,4,11,8
7,1.263419,0,3,132,3,4,7
7,1.14124,0,3,51,3,9,4
7,1.19795,0,2,61,3,9,1
7,1.581385,0,1,71,3,12,2
7,1.356679,1,1,138,4,3,6
7,0.97707,0,3,108,1,2,7
7,1.245284,0,2,33,2,11,2
7,0.95201,0,3,113,2,1,7
7,1.105786,0,1,116,2,1,5
7,0.9439,0,2,141,4,3,5
7,0.865992,0,2,109,2,1,6
7,1.248816,0,2,105,1,2,6
7,1.132188,0,2,122,3,4,5
7,0.639943,0,1,107,1,2,5
7,0.914972,0,2,16,1,10,2
7,1.178145,0,3,142,4,3,7
7,1.12776,0,3,36,2,12,4
7,1.033615,0,1,79,4,11,2
7,1.349894,1,3,29,2,10,3
7,1.04462,0,3,60,3,12,3
7,1.11804,0,3,53,3,10,3
7,1.074489,0,2,49,3,9,8
7,0.78983,0,2,52,3,10,1
7,1.316517,0,3,12,1,12,4
7,0.870927,0,2,45,2,11,2
7,0.75484,0,2,74,4,9,8
7,1.141931,0,2,76,4,10,1
7,1.200514,1,1,7,1,11,1
7,1.651789,0,2,134,4,3,5
7,1.236311,0,1,42,2,10,8
7,0.939636,1,1,90,4,10,2
7,1.047822,0,1,55,3,11,2
7,1.608512,0,1,92,4,11,2
7,1.067606,0,1,104,1,2,5
7,1.237967,0,1,30,2,10,1
7,0.812461,0,2,112,2,1,6
7,0.92712,0,2,9,1,11,2
7,1.17051,0,3,58,3,12,4
7,1.315329,0,1,31,2,11,1
7,1.085748,0,3,39,2,9,3
7,1.330697,1,3,94,4,12,3
7,1.991186,0,1,102,1,2,5
7,1.258148,0,1,114,2,1,5
7,0.904282,0,2,50,3,9,8
7,1.027983,0,1,128,3,4,6
7,1.500297,0,3,27,2,9,4
7,1.374225,0,2,129,3,4,5
7,1.074262,1,3,106,1,2,7
7,0.710742,0,2,14,1,9,2
7,1.744335,0,3,84,4,12,3
7,1.210067,0,2,97,1,2,6
7,0.736094,0,2,86,4,9,1
7,1.448677,0,3,65,3,10,4
7,0.858938,0,1,119,2,1,5
7,1.496046,0,3,41,2,10,4
7,0.869204,0,2,110,2,1,6
7,1.091488,0,1,32,2,11,8
7,1.02762,0,3,87,4,9,3
7,1.991636,0,3,89,4,10,4
7,1.100827,1,1,78,4,10,2
7,2.013497,0,3,137,4,3,7
7,0.96492,0,3,63,3,9,3
7,1.071172,0,3,48,2,12,3
7,0.996548,0,2,64,3,10,8
7,1.109586,0,1,44,2,11,1
7,1.444465,0,3,72,3,12,4
7,1.32394,0,1,23,1,12,1
7,2.273882,1,3,118,2,1,7
7,1.341064,1,3,70,3,12,3
7,1.245046,0,3,99,1,2,7
7,1.299228,1,1,103,1,2,5
7,1.377936,1,3,34,2,12,3
7,0.723578,0,2,129,3,4,5
7,0.897692,0,3,99,1,2,7
7,0.960088,0,1,119,2,1,5
7,0.741579,0,2,110,2,1,6
7,1.007027,0,3,106,1,2,7
7,0.809311,0,2,2,1,9,2
7,1.097546,0,3,46,2,12,4
7,1.247803,0,3,101,1,2,7
7,1.114813,0,1,139,4,3,6
7,0.887951,0,1,71,3,12,2
7,0.934875,0,2,122,3,4,5
7,1.014788,0,1,79,4,11,2
7,1.325191,0,2,97,1,2,6
7,0.980666,0,3,137,4,3,7
7,1.096731,1,3,125,3,4,7
7,0.624098,0,2,117,2,1,6
7,0.666992,0,2,69,3,11,8
7,0.921612,0,3,41,2,10,4
7,0.957983,0,2,57,3,11,1
7,0.683735,0,2,13,1,9,2
7,1.411501,0,1,32,2,11,8
7,1.076092,0,3,48,2,12,3
7,1.128416,0,3,94,4,12,3
7,1.483984,0,1,102,1,2,5
7,0.900828,0,1,18,1,10,8
7,0.773092,0,1,55,3,11,2
7,0.973418,0,2,133,4,3,5
7,0.980618,0,3,108,1,2,7
7,0.891022,0,1,131,3,4,6
7,0.851909,0,2,121,3,4,5
7,1.372977,1,3,111,2,1,7
7,0.765388,0,2,109,2,1,6
7,1.077397,0,3,53,3,10,3
7,0.766708,0,2,136,4,3,5
7,0.87729,0,1,91,4,11,2
7,0.98631,0,1,126,3,4,6
7,0.972322,0,2,14,1,9,2
7,1.015501,0,1,114,2,1,5
7,1.062124,0,3,58,3,12,4
7,0.552744,0,2,9,1,11,2
7,1.131365,1,1,83,4,12,2
7,1.100186,0,1,80,4,11,2
7,1.073163,0,3,27,2,9,4
7,1.146632,0,3,22,1,12,4
7,1.198489,0,2,4,1,10,2
7,0.811843,0,2,40,2,10,2
7,0.87137,0,2,62,3,9,1
7,0.744468,0,2,124,3,4,5
7,0.8657,0,2,28,2,10,2
7,0.889769,0,2,49,3,9,8
7,0.738243,0,2,38,2,9,2
7,1.107809,0,2,134,4,3,5
7,0.629354,0,2,21,1,11,2
7,1.27581,0,3,60,3,12,3
7,0.88772,0,1,90,4,10,2
7,1.093657,0,1,23,1,12,1
7,1.019685,0,3,89,4,10,4
7,1.203585,0,3,75,4,9,4
7,0.769407,0,2,112,2,1,6
7,1.050148,0,1,68,3,11,2
7,0.703365,0,1,128,3,4,6
7,1.57395,0,2,100,1,2,6
7,1.252405,0,3,135,4,3,7
7,1.382276,0,3,29,2,10,3
7,1.027331,0,2,74,4,9,8
7,0.874769,0,1,11,1,12,8
7,1.654367,0,3,17,1,10,4
7,1.338593,0,2,98,1,2,6
7,1.020485,0,3,36,2,12,4
7,0.778521,0,2,73,4,9,8
7,1.561529,0,2,86,4,9,1
7,1.020676,0,2,61,3,9,1
7,0.882029,0,1,30,2,10,1
7,1.001637,0,3,15,1,9,3
7,1.623491,0,1,7,1,11,1
7,0.600946,0,2,76,4,10,1
7,1.172575,0,1,56,3,11,2
7,1.404925,0,1,138,4,3,6
7,0.612337,0,1,95,4,12,2
7,1.154549,0,2,88,4,10,8
7,0.721635,0,1,103,1,2,5
7,0.740456,0,1,140,4,3,6
7,1.199493,0,3,130,3,4,7
7,0.905349,0,2,85,4,9,1
7,1.28378,0,3,12,1,12,4
7,0.948822,0,2,81,4,11,1
7,1.067103,0,1,35,2,12,8
7,1.201796,0,3,84,4,12,3
7,1.493059,0,2,50,3,9,8
7,1.243467,1,1,115,2,1,5
7,1.116077,1,1,42,2,10,8
7,1.423736,0,3,5,1,10,3
7,1.077721,0,3,96,4,12,4
7,1.325148,1,1,47,2,12,1
7,0.911666,1,3,3,1,9,4
7,0.747263,0,1,107,1,2,5
7,1.233635,0,3,63,3,9,3
7,1.260665,0,2,25,2,9,2
7,1.170422,0,3,77,4,10,3
7,1.069874,0,1,66,3,10,2
7,1.19098,0,2,64,3,10,8
7,1.776798,0,3,132,3,4,7
7,0.699571,0,1,78,4,10,2
7,1.086513,0,3,142,4,3,7
7,1.511047,0,3,82,4,12,4
7,0.818186,0,1,143,4,3,6
7,1.289002,0,2,93,4,11,8
7,0.937079,0,3,39,2,9,3
7,0.953104,0,2,16,1,10,2
7,1.123403,0,1,43,2,11,8
7,1.114244,0,1,20,1,11,1
7,1.238613,0,2,37,2,9,2
7,1.315052,0,1,8,1,11,8
7,0.832562,0,1,6,1,10,1
7,0.808333,0,1,44,2,11,1
7,1.097978,0,3,113,2,1,7
7,1.061658,0,3,51,3,9,4
7,0.94837,0,3,24,1,12,3
7,0.914573,0,1,104,1,2,5
7,1.34991,0,3,70,3,12,3
7,1.049943,0,3,65,3,10,4
7,1.048912,0,2,52,3,10,1
7,0.933944,0,1,19,1,11,8
7,1.276929,0,2,33,2,11,2
7,1.278788,0,3,87,4,9,3
7,0.873861,0,1,92,4,11,2
7,1.022482,0,2,1,1,9,2
7,1.389878,0,1,31,2,11,1
7,0.874965,0,3,123,3,4,7
7,2.180689,0,3,144,4,3,7
7,1.010329,0,3,120,2,1,7
7,1.386085,0,1,127,3,4,6
7,0.664324,0,2,105,1,2,6
7,0.773146,0,1,54,3,10,2
7,0.865594,0,1,116,2,1,5
7,1.280776,0,2,45,2,11,2
7,0.921267,1,3,118,2,1,7
7,1.28139,0,2,26,2,9,2
7,0.805937,1,3,72,3,12,4
7,1.357676,0,1,59,3,12,2
7,1.037807,0,3,10,1,12,3
7,0.894559,0,2,141,4,3,5
7,0.87172,0,1,67,3,11,2
7,0.811784,0,3,41,2,10,4
7,0.891057,0,3,10,1,12,3
7,1.073207,1,3,58,3,12,4
7,0.65623,0,1,7,1,11,1
7,1.211612,0,3,118,2,1,7
7,1.521673,0,3,132,3,4,7
7,0.651115,0,2,37,2,9,2
7,0.667596,0,2,25,2,9,2
7,0.676277,0,2,121,3,4,5
7,0.649161,0,1,131,3,4,6
7,1.236571,0,3,130,3,4,7
7,0.93902,0,1,102,1,2,5
7,0.90009,0,1,20,1,11,1
7,0.709247,0,2,136,4,3,5
7,1.323373,0,3,24,1,12,3
7,1.851109,1,3,125,3,4,7
7,1.023237,0,1,139,4,3,6
7,0.831812,0,1,115,2,1,5
7,0.801862,0,1,79,4,11,2
7,1.261527,1,2,112,2,1,6
7,0.792433,0,1,54,3,10,2
7,1.47414,0,3,12,1,12,4
7,1.096302,0,3,29,2,10,3
7,0.792474,0,1,119,2,1,5
7,0.808933,0,1,127,3,4,6
7,2.279011,1,1,56,3,11,2
7,0.552128,0,2,97,1,2,6
7,1.016896,0,3,34,2,12,3
7,0.855235,0,2,14,1,9,2
7,0.573656,0,2,26,2,9,2
7,0.739718,1,3,72,3,12,4
7,0.962092,0,3,137,4,3,7
7,0.795615,0,1,104,1,2,5
7,0.665812,0,1,95,4,12,2
7,0.795303,0,2,62,3,9,1
7,0.842827,0,3,96,4,12,4
7,0.818657,0,2,33,2,11,2
7,0.977361,0,3,5,1,10,3
7,0.986024,0,1,68,3,11,2
7,0.753898,0,2,98,1,2,6
7,1.174444,0,3,22,1,12,4
7,0.924742,0,1,78,4,10,2
7,0.890658,0,3,36,2,12,4
7,0.850428,0,3,113,2,1,7
7,0.860882,0,2,74,4,9,8
7,0.993196,1,1,44,2,11,1
7,0.869261,0,3,89,4,10,4
7,0.673967,0,2,57,3,11,1
7,1.086069,0,2,45,2,11,2
7,0.902481,0,1,83,4,12,2
7,0.802564,0,2,38,2,9,2
7,0.69028,0,2,133,4,3,5
7,0.833354,0,1,90,4,10,2
7,0.908631,0,3,51,3,9,4
7,0.76406,0,2,129,3,4,5
7,0.997408,0,1,19,1,11,8
7,0.877558,0,2,13,1,9,2
7,0.943432,1,3,15,1,9,3
7,0.782034,0,3,82,4,12,4
7,1.326381,0,1,143,4,3,6
7,0.842261,0,2,4,1,10,2
7,0.845241,0,3,99,1,2,7
7,1.050452,0,1,23,1,12,1
7,1.190213,0,1,55,3,11,2
7,0.835752,0,3,75,4,9,4
7,2.199235,0,2,2,1,9,2
7,1.127638,0,1,138,4,3,6
7,0.575437,0,2,117,2,1,6
7,1.361106,0,1,71,3,12,2
7,0.885863,0,1,80,4,11,2
7,1.130272,0,1,43,2,11,8
7,0.838613,0,1,114,2,1,5
7,1.114902,0,3,123,3,4,7
7,1.076735,0,3,39,2,9,3
7,0.90627,0,1,116,2,1,5
7,0.79453,0,1,30,2,10,1
7,1.806128,1,1,128,3,4,6
7,0.770382,0,3,27,2,9,4
7,0.779399,0,3,65,3,10,4
7,0.742879,0,1,67,3,11,2
7,0.790291,0,3,60,3,12,3
7,0.782092,0,1,18,1,10,8
7,0.943325,0,2,86,4,9,1
7,0.97296,0,3,108,1,2,7
7,0.804851,0,3,63,3,9,3
7,0.917434,0,1,8,1,11,8
7,1.281466,0,3,87,4,9,3
7,1.867353,0,3,94,4,12,3
7,1.097133,1,2,16,1,10,2
7,1.107044,0,3,106,1,2,7
7,0.895479,1,3,17,1,10,4
7,1.044265,0,2,40,2,10,2
7,1.05327,0,3,77,4,10,3
7,0.995889,0,3,135,4,3,7
7,1.365365,0,1,11,1,12,8
7,0.540743,0,2,28,2,10,2
7,0.723242,0,2,52,3,10,1
7,0.834915,0,1,91,4,11,2
7,1.15195,1,1,6,1,10,1
7,1.12741,0,1,59,3,12,2
7,0.841706,1,2,73,4,9,8
7,1.290046,0,1,126,3,4,6
7,1.206465,1,1,35,2,12,8
7,0.668542,0,1,107,1,2,5
7,1.070294,0,2,50,3,9,8
7,1.258747,0,2,134,4,3,5
7,0.708774,0,1,66,3,10,2
7,1.026365,1,2,88,4,10,8
7,0.885681,0,3,144,4,3,7
7,0.726561,0,2,69,3,11,8
7,1.048924,0,3,142,4,3,7
7,1.017427,0,2,93,4,11,8
7,1.135166,0,3,111,2,1,7
7,1.205036,0,2,124,3,4,5
7,1.053576,0,3,84,4,12,3
7,1.053189,0,2,64,3,10,8
7,1.380059,0,3,70,3,12,3
7,1.2813,1,1,42,2,10,8
7,0.914563,0,1,103,1,2,5
7,0.728414,0,2,105,1,2,6
7,1.210383,1,2,110,2,1,6
7,0.98649,0,3,120,2,1,7
7,0.892156,0,2,61,3,9,1
7,0.839093,1,3,53,3,10,3
7,1.01473,0,3,101,1,2,7
7,1.420843,1,3,3,1,9,4
7,1.149929,1,1,31,2,11,1
7,0.490367,0,2,9,1,11,2
7,0.965069,0,2,109,2,1,6
7,0.964804,0,2,49,3,9,8
7,1.029909,0,1,32,2,11,8
7,1.230946,1,2,81,4,11,1
7,1.358119,0,2,85,4,9,1
7,0.650487,0,1,140,4,3,6
7,0.82521,0,3,48,2,12,3
7,1.238615,0,2,76,4,10,1
7,1.046515,1,2,141,4,3,5
7,0.905923,0,1,47,2,12,1
7,0.578578,0,1,92,4,11,2
7,0.80885,0,2,122,3,4,5
7,0.929058,0,2,100,1,2,6
7,0.786235,0,2,21,1,11,2
7,1.662155,0,3,46,2,12,4
7,0.829717,0,2,1,1,9,2
7,0.538291,0,2,133,4,3,5
7,1.014363,0,3,34,2,12,3
7,0.626805,0,1,102,1,2,5
7,0.740404,0,1,95,4,12,2
7,0.505733,0,2,16,1,10,2
7,1.321601,0,2,57,3,11,1
7,0.93403,0,3,46,2,12,4
7,1.181504,0,2,129,3,4,5
7,0.877653,0,3,48,2,12,3
7,1.192647,0,3,51,3,9,4
7,0.873692,0,2,136,4,3,5
7,0.658449,0,1,47,2,12,1
7,1.02155,0,2,52,3,10,1
7,0.679091,0,2,122,3,4,5
7,0.691524,0,2,28,2,10,2
7,0.823939,1,3,113,2,1,7
7,1.052595,0,3,41,2,10,4
7,1.004335,0,2,4,1,10,2
7,0.778859,0,2,117,2,1,6
7,1.161756,0,2,97,1,2,6
7,0.92026,0,2,76,4,10,1
7,0.882824,0,1,131,3,4,6
7,1.088018,0,3,27,2,9,4
7,0.466744,0,2,2,1,9,2
7,1.090185,1,3,15,1,9,3
7,1.106397,0,3,17,1,10,4
7,0.464728,0,1,114,2,1,5
7,0.669184,0,2,121,3,4,5
7,0.804426,0,3,58,3,12,4
7,0.887261,0,1,6,1,10,1
7,1.294991,0,2,93,4,11,8
7,0.817419,0,1,143,4,3,6
7,0.803354,0,3,106,1,2,7
7,0.940047,0,1,79,4,11,2
7,0.977918,0,3,96,4,12,4
7,1.210269,0,3,120,2,1,7
7,1.075247,1,2,110,2,1,6
7,0.643298,0,1,139,4,3,6
7,0.598257,1,1,138,4,3,6
7,0.508699,0,1,90,4,10,2
7,0.795596,0,3,70,3,12,3
7,0.95957,0,1,83,4,12,2
7,1.249693,1,3,99,1,2,7
7,0.878657,0,1,128,3,4,6
7,0.854405,0,3,108,1,2,7
7,0.854023,0,3,94,4,12,3
7,1.112439,0,1,23,1,12,1
7,1.234873,0,3,130,3,4,7
7,0.988361,0,3,77,4,10,3
7,0.904771,0,2,50,3,9,8
7,0.91729,1,2,69,3,11,8
7,0.670063,0,2,37,2,9,2
7,0.642908,0,2,86,4,9,1
7,1.150591,0,3,75,4,9,4
7,0.850041,0,1,44,2,11,1
7,0.654495,0,1,140,4,3,6
7,0.674646,0,2,109,2,1,6
7,1.196473,0,2,105,1,2,6
7,0.831086,1,1,68,3,11,2
7,0.940481,0,3,137,4,3,7
7,0.446267,0,1,54,3,10,2
7,1.324068,1,2,25,2,9,2
7,1.338233,0,2,124,3,4,5
7,0.925575,0,3,84,4,12,3
7,1.156531,0,1,59,3,12,2
7,0.958161,0,1,91,4,11,2
7,0.793173,0,1,67,3,11,2
7,0.666329,0,2,26,2,9,2
7,0.535157,0,1,107,1,2,5
7,0.788902,0,2,40,2,10,2
7,0.749852,0,1,104,1,2,5
7,0.84596,0,3,89,4,10,4
7,0.911602,1,3,63,3,9,3
7,0.665717,0,2,85,4,9,1
7,0.985979,1,1,103,1,2,5
7,0.83321,0,3,135,4,3,7
7,0.769711,0,1,119,2,1,5
7,0.747614,0,1,32,2,11,8
7,1.034005,0,3,3,1,9,4
7,1.14828,0,2,74,4,9,8
7,0.778362,0,1,56,3,11,2
7,0.689948,0,1,35,2,12,8
7,0.507874,0,2,141,4,3,5
7,0.915256,0,3,24,1,12,3
7,0.836281,0,3,82,4,12,4
7,0.721247,0,2,112,2,1,6
7,0.658149,0,3,101,1,2,7
7,0.760377,0,3,123,3,4,7
7,1.716205,0,2,62,3,9,1
7,0.952635,0,2,14,1,9,2
7,1.043729,1,1,80,4,11,2
7,0.876306,0,3,22,1,12,4
7,0.855175,0,1,55,3,11,2
7,0.644316,0,1,20,1,11,1
7,0.84933,0,3,39,2,9,3
7,1.261875,0,1,7,1,11,1
7,0.861788,0,3,29,2,10,3
7,0.873904,0,3,65,3,10,4
7,0.780017,0,1,43,2,11,8
7,0.967377,0,2,38,2,9,2
7,0.950214,0,2,61,3,9,1
7,0.625091,1,2,21,1,11,2
7,1.035646,0,2,98,1,2,6
7,0.706504,0,2,100,1,2,6
7,1.322201,0,3,118,2,1,7
7,0.754138,0,2,64,3,10,8
7,0.828718,0,1,42,2,10,8
7,0.856617,0,3,144,4,3,7
7,1.280914,1,3,5,1,10,3
7,0.992752,0,3,132,3,4,7
7,0.699583,0,1,66,3,10,2
7,0.996251,0,2,9,1,11,2
7,0.625622,0,2,88,4,10,8
7,0.608382,0,2,45,2,11,2
7,1.096756,1,1,8,1,11,8
7,0.638954,0,1,78,4,10,2
7,0.989968,0,1,127,3,4,6
7,0.751138,0,2,13,1,9,2
7,0.850117,0,2,49,3,9,8
7,0.625953,0,1,71,3,12,2
7,0.943002,0,3,10,1,12,3
7,1.015449,0,1,116,2,1,5
7,0.716332,0,2,1,1,9,2
7,0.824034,0,1,19,1,11,8
7,0.759541,0,3,142,4,3,7
7,1.02352,0,1,115,2,1,5
7,0.651988,0,3,12,1,12,4
7,1.082196,0,1,18,1,10,8
7,0.809976,0,2,73,4,9,8
7,0.737714,0,1,30,2,10,1
7,0.977268,0,3,111,2,1,7
7,1.380719,0,1,126,3,4,6
7,0.905009,0,3,53,3,10,3
7,1.24721,0,3,60,3,12,3
7,0.799618,0,3,87,4,9,3
7,0.707128,0,2,134,4,3,5
7,0.863583,0,2,81,4,11,1
7,1.091373,0,2,33,2,11,2
7,1.089845,0,1,11,1,12,8
7,0.80074,0,1,92,4,11,2
7,0.966732,0,3,36,2,12,4
7,0.670881,0,3,72,3,12,4
7,0.813802,0,1,31,2,11,1
7,0.863001,0,3,125,3,4,7
8,0.883389,0,2,99,1,2,6
8,1.169275,0,2,115,2,1,6
8,0.934649,0,3,119,2,1,7
8,1.20239,0,1,58,3,12,2
8,0.942066,0,3,2,1,9,3
8,1.104847,0,2,29,2,10,2
8,1.148626,0,3,6,1,10,4
8,0.983261,0,2,91,4,11,8
8,1.222262,0,1,76,4,10,2
8,1.597223,0,2,144,4,3,5
8,1.016308,0,3,114,2,1,7
8,2.870543,1,2,120,2,1,6
8,0.99328,0,2,113,2,1,6
8,1.310969,0,1,116,2,1,5
8,0.996298,0,3,107,1,2,7
8,1.156629,1,1,92,4,11,2
8,0.872278,0,2,123,3,4,5
8,1.307379,0,3,126,3,4,7
8,0.712638,0,2,15,1,9,2
8,1.208219,0,2,17,1,10,2
8,1.024922,0,3,110,2,1,7
8,1.017737,0,2,72,3,12,1
