name,rt,error,correct_key,trial,pair1,pair2,trial_types
1,2.056522,1,3,31,2,11,3
1,3.059444,0,2,12,1,12,2
1,1.958117,0,3,139,4,3,7
1,2.382799,0,1,59,3,12,2
1,1.132924,0,1,113,2,1,5
1,1.208321,0,2,51,3,9,8
1,1.655402,0,3,52,3,10,4
1,1.581869,0,2,68,3,11,8
1,0.821419,0,2,9,1,11,2
1,0.821829,0,1,5,1,10,1
1,0.989545,0,2,60,3,12,8
1,0.79837,0,2,140,4,3,5
1,1.567844,0,3,40,2,10,4
1,2.105518,1,3,90,4,10,4
1,1.554968,0,1,137,4,3,6
1,2.124591,0,3,122,3,4,7
1,1.173871,0,3,124,3,4,7
1,1.416037,0,2,33,2,11,2
1,3.079792,0,3,55,3,11,3
1,1.121218,0,1,125,3,4,6
1,0.723499,0,1,82,4,12,2
1,0.70438,0,2,128,3,4,5
1,1.117976,1,1,25,2,9,8
1,1.001357,0,1,29,2,10,1
1,1.475153,0,3,64,3,10,3
1,1.175103,0,1,130,3,4,6
1,0.920652,0,1,22,1,12,8
1,1.30081,0,2,96,4,12,1
1,1.185788,0,2,75,4,9,8
1,1.4183,0,1,131,3,4,6
1,1.563066,0,3,103,1,2,7
1,0.987429,0,2,132,3,4,5
1,1.525331,0,3,16,1,10,4
1,1.160843,0,3,126,3,4,7
1,1.177692,0,2,87,4,9,1
1,0.635194,0,2,48,2,12,2
1,0.668404,0,1,94,4,12,2
1,1.371137,0,3,54,3,10,3
1,1.291947,0,1,70,3,12,2
1,0.687061,0,1,106,1,2,5
1,1.36497,0,3,138,4,3,7
1,0.966121,0,2,63,3,9,1
1,1.455931,0,1,23,1,12,1
1,1.062656,0,1,121,3,4,6
1,1.637421,1,2,104,1,2,6
1,0.827292,0,1,101,1,2,5
1,1.34025,0,3,50,3,9,4
1,1.198718,1,2,32,2,11,2
1,1.070215,1,1,133,4,3,6
1,1.156206,0,3,74,4,9,4
1,0.925856,0,1,47,2,12,1
1,1.579014,0,3,6,1,10,4
1,3.274591,0,3,86,4,9,3
1,2.389151,0,3,136,4,3,7
1,1.418694,0,2,21,1,11,2
1,0.714203,0,2,81,4,11,1
1,2.59063,1,1,118,2,1,5
1,1.101125,0,1,10,1,12,1
1,1.042282,0,2,20,1,11,2
1,0.632549,0,2,56,3,11,1
1,3.065522,1,3,78,4,10,3
1,1.131401,1,1,119,2,1,5
1,1.118566,1,1,11,1,12,8
1,1.106588,1,1,107,1,2,5
1,1.199504,0,2,117,2,1,6
1,0.880938,0,1,77,4,10,2
1,0.965863,1,1,71,3,12,2
1,0.952349,0,1,53,3,10,2
1,0.731774,0,1,41,2,10,8
1,1.367502,1,1,13,1,9,1
1,0.840638,0,1,58,3,12,2
1,1.040003,0,2,144,4,3,5
1,1.45506,0,3,79,4,11,3
1,1.149097,0,1,95,4,12,2
1,0.999143,0,3,14,1,9,3
1,0.904377,0,2,57,3,11,1
1,1.188401,1,2,99,1,2,6
1,1.301648,0,2,92,4,11,8
1,1.137672,0,1,61,3,9,2
1,1.245036,0,3,112,2,1,7
1,1.210663,0,1,89,4,10,2
1,1.555288,0,3,19,1,11,4
1,0.963498,0,2,105,1,2,6
1,1.119289,0,1,143,4,3,6
1,1.226477,0,3,43,2,11,4
1,0.793191,0,2,44,2,11,2
1,1.090429,0,1,49,3,9,2
1,1.047763,0,2,120,2,1,6
1,0.606944,0,2,111,2,1,6
1,0.720861,0,2,69,3,11,8
1,0.781457,0,1,1,1,9,8
1,0.926051,0,3,66,3,10,4
1,1.24372,0,1,83,4,12,2
1,0.929771,0,2,116,2,1,6
1,1.693242,0,3,110,2,1,7
1,1.352977,0,3,4,1,10,3
1,1.03494,0,1,65,3,10,2
1,0.554698,0,2,80,4,11,1
1,1.334079,0,3,18,1,10,3
1,1.617408,1,3,42,2,10,3
1,1.080015,0,2,108,1,2,6
1,1.197362,1,1,85,4,9,2
1,1.599318,1,1,17,1,10,8
1,1.150995,0,2,135,4,3,5
1,2.208718,1,1,109,2,1,5
1,1.071712,0,1,97,1,2,5
1,0.837309,1,2,129,3,4,5
1,1.939493,0,3,115,2,1,7
1,0.851923,0,1,46,2,12,8
1,1.363604,0,3,102,1,2,7
1,1.676809,0,2,123,3,4,5
1,1.393568,0,3,98,1,2,7
1,1.13778,0,3,127,3,4,7
1,1.411445,0,3,30,2,10,4
1,1.122606,0,3,134,4,3,7
1,1.040153,0,3,67,3,11,4
1,1.422202,0,2,8,1,11,2
1,1.318171,0,2,36,2,12,2
1,0.738085,0,2,15,1,9,2
1,0.98993,0,3,2,1,9,4
1,1.247715,0,3,100,1,2,7
1,0.852453,0,2,3,1,9,2
1,1.116517,0,3,38,2,9,3
1,1.472283,0,3,7,1,11,3
1,1.117507,0,2,72,3,12,1
1,0.592377,0,2,39,2,9,2
1,1.402323,0,3,76,4,10,4
1,1.155258,0,3,88,4,10,3
1,0.956298,0,3,114,2,1,7
1,1.343071,0,1,34,2,12,1
1,1.249309,0,3,26,2,9,4
1,0.838611,0,3,62,3,9,3
1,1.23052,0,2,24,1,12,2
1,2.093828,0,2,45,2,11,2
1,0.657805,0,2,93,4,11,8
1,0.865038,0,1,142,4,3,6
1,0.935425,0,2,84,4,12,8
1,1.170022,0,3,91,4,11,4
1,1.379793,1,1,37,2,9,1
1,2.045323,0,1,35,2,12,8
1,0.681312,0,1,73,4,9,2
1,1.271924,1,3,28,2,10,3
1,1.157079,0,2,27,2,9,2
1,1.086892,0,2,141,4,3,5
1,1.022029,0,3,74,4,9,4
1,1.580989,1,3,31,2,11,3
1,0.837795,0,2,99,1,2,6
1,0.700995,0,2,96,4,12,1
1,0.538228,0,2,135,4,3,5
1,0.518446,0,2,75,4,9,8
1,1.091655,1,3,91,4,11,4
1,0.593669,0,2,132,3,4,5
1,0.898147,0,3,50,3,9,4
1,0.991869,0,2,117,2,1,6
1,0.512591,0,2,9,1,11,2
1,1.093607,0,3,67,3,11,4
1,0.969708,1,1,59,3,12,2
1,1.044322,0,1,41,2,10,8
1,1.042598,0,2,87,4,9,1
1,0.561497,0,2,72,3,12,1
1,1.084954,0,3,134,4,3,7
1,0.914077,0,1,34,2,12,1
1,1.734337,0,3,110,2,1,7
1,0.672604,0,2,123,3,4,5
1,0.590708,0,2,108,1,2,6
1,1.152595,0,2,93,4,11,8
1,0.803901,0,2,116,2,1,6
1,0.916151,0,2,3,1,9,2
1,1.343724,0,3,138,4,3,7
1,0.682396,0,2,51,3,9,8
1,0.824565,0,2,57,3,11,1
1,1.280392,0,1,107,1,2,5
1,0.899876,0,1,125,3,4,6
1,0.64132,0,2,21,1,11,2
1,0.697399,0,2,39,2,9,2
1,0.81499,0,1,118,2,1,5
1,1.33537,0,3,78,4,10,3
1,1.745125,0,1,83,4,12,2
1,0.740562,0,2,48,2,12,2
1,0.928172,0,1,97,1,2,5
1,0.884126,0,1,106,1,2,5
1,1.137465,0,3,19,1,11,4
1,1.717133,1,1,25,2,9,8
1,0.743264,1,2,129,3,4,5
1,1.099498,0,3,30,2,10,4
1,1.367259,0,1,49,3,9,2
1,0.817066,0,1,94,4,12,2
1,1.288786,0,1,71,3,12,2
1,0.73453,0,1,121,3,4,6
1,0.704963,0,1,73,4,9,2
1,1.03826,0,3,52,3,10,4
1,1.069915,0,3,127,3,4,7
1,1.204156,0,1,61,3,9,2
1,1.076874,0,2,140,4,3,5
1,1.01068,0,1,137,4,3,6
1,0.890392,0,2,111,2,1,6
1,1.103808,0,3,76,4,10,4
1,1.499568,0,1,35,2,12,8
1,1.239906,0,3,124,3,4,7
1,1.118984,0,1,37,2,9,1
1,1.186619,0,3,4,1,10,3
1,1.306049,0,2,128,3,4,5
1,0.741805,0,2,80,4,11,1
1,0.617353,0,1,70,3,12,2
1,0.978979,0,3,43,2,11,4
1,1.388254,0,3,100,1,2,7
1,1.341041,0,3,126,3,4,7
1,0.783287,0,2,33,2,11,2
1,0.664809,0,2,8,1,11,2
1,0.775741,0,1,77,4,10,2
1,1.162705,0,1,133,4,3,6
1,1.308676,0,1,29,2,10,1
1,1.095918,0,3,64,3,10,3
1,0.965413,0,1,5,1,10,1
1,1.927553,0,3,2,1,9,4
1,1.824727,0,1,47,2,12,1
1,0.791711,0,2,12,1,12,2
1,0.640528,0,1,89,4,10,2
1,1.529773,0,3,139,4,3,7
1,0.988117,1,1,119,2,1,5
1,0.693449,0,2,120,2,1,6
1,0.914121,0,1,11,1,12,8
1,1.094302,0,3,28,2,10,3
1,1.531974,0,3,98,1,2,7
1,0.926458,0,2,104,1,2,6
1,1.080899,0,1,46,2,12,8
1,0.645953,0,1,53,3,10,2
1,0.709668,0,2,27,2,9,2
1,1.811553,0,1,1,1,9,8
1,0.929239,0,2,36,2,12,2
1,1.133533,0,1,95,4,12,2
1,1.287616,0,1,131,3,4,6
1,1.388418,0,3,66,3,10,4
1,1.813594,1,1,82,4,12,2
1,0.707241,0,2,56,3,11,1
1,0.736747,1,3,115,2,1,7
1,0.780105,0,2,60,3,12,8
1,0.958796,0,3,55,3,11,3
1,1.416145,0,1,142,4,3,6
1,1.311298,1,2,92,4,11,8
1,0.778459,0,2,141,4,3,5
1,1.093043,0,3,79,4,11,3
1,0.921107,0,1,10,1,12,1
1,2.013404,0,1,143,4,3,6
1,1.002725,1,1,101,1,2,5
1,2.300715,1,1,85,4,9,2
1,1.134315,0,3,40,2,10,4
1,1.337332,0,3,6,1,10,4
1,1.116087,0,3,86,4,9,3
1,1.52862,1,2,32,2,11,2
1,1.234863,0,2,24,1,12,2
1,1.512845,1,1,109,2,1,5
1,0.812537,0,2,144,4,3,5
1,1.164744,0,2,20,1,11,2
1,1.159003,1,3,88,4,10,3
1,0.689609,0,2,84,4,12,8
1,0.895922,0,3,90,4,10,4
1,1.386843,1,3,102,1,2,7
1,0.97979,0,2,69,3,11,8
1,0.67029,0,2,15,1,9,2
1,1.029737,0,1,17,1,10,8
1,0.612531,0,1,130,3,4,6
1,0.732247,0,2,63,3,9,1
1,0.96921,0,1,13,1,9,1
1,1.187621,0,3,7,1,11,3
1,1.140271,0,1,23,1,12,1
1,1.182517,1,2,44,2,11,2
1,2.487359,0,2,68,3,11,8
1,1.010074,0,1,22,1,12,8
1,0.818214,0,1,58,3,12,2
1,1.067232,0,3,62,3,9,3
1,0.857645,0,1,65,3,10,2
1,0.999455,0,2,45,2,11,2
1,1.089339,0,3,114,2,1,7
1,0.766204,0,2,105,1,2,6
1,1.68001,0,3,54,3,10,3
1,1.692185,0,3,103,1,2,7
1,1.207054,0,1,113,2,1,5
1,1.440016,0,3,18,1,10,3
1,0.694733,0,2,81,4,11,1
1,1.307652,0,3,42,2,10,3
1,0.791066,0,3,26,2,9,4
1,0.68055,0,3,122,3,4,7
1,1.30271,0,3,136,4,3,7
1,0.995189,0,3,112,2,1,7
1,0.941381,0,3,14,1,9,3
1,1.072336,0,3,16,1,10,4
1,1.060527,0,3,38,2,9,3
2,2.753402,1,1,13,1,9,8
2,3.295297,0,1,131,3,4,6
2,1.832723,0,1,107,1,2,5
2,1.372381,0,2,64,3,10,8
2,1.594036,0,2,112,2,1,6
2,1.568165,0,3,2,1,9,3
2,2.175145,1,1,1,1,9,1
2,4.245355,0,1,49,3,9,2
2,1.74477,0,1,121,3,4,6
2,1.311926,0,2,132,3,4,5
2,1.321516,0,2,108,1,2,6
2,1.489181,0,3,101,1,2,7
2,2.555736,0,1,68,3,11,2
2,3.098938,1,2,75,4,9,1
2,1.372032,0,3,34,2,12,3
2,1.290906,0,3,38,2,9,4
2,1.468537,0,1,20,1,11,1
2,1.335648,0,3,113,2,1,7
2,1.726659,0,3,21,1,11,3
2,1.944121,0,1,143,4,3,6
2,1.942915,0,3,57,3,11,3
2,2.062465,0,3,81,4,11,3
2,1.11385,0,2,67,3,11,1
2,1.097729,0,1,6,1,10,8
2,1.419969,0,1,54,3,10,2
2,1.000595,0,3,105,1,2,7
2,1.093513,0,2,3,1,9,2
2,1.431145,0,2,120,2,1,6
2,1.194658,0,1,109,2,1,5
2,1.025693,0,1,11,1,12,1
2,1.333833,0,2,40,2,10,2
2,1.573684,0,3,94,4,12,4
2,1.508248,1,2,28,2,10,2
2,2.813513,0,3,117,2,1,7
2,1.570245,0,3,26,2,9,3
2,1.257277,0,1,126,3,4,6
2,1.363573,0,3,29,2,10,4
2,1.370912,0,3,65,3,10,3
2,1.545013,0,3,50,3,9,4
2,2.112657,0,2,16,1,10,2
2,1.434016,0,3,110,2,1,7
2,1.373241,1,2,55,3,11,8
2,1.635914,0,3,69,3,11,4
2,1.312217,0,3,137,4,3,7
2,1.296863,0,3,58,3,12,3
2,0.946319,0,3,118,2,1,7
2,2.145697,1,3,62,3,9,3
2,1.089114,0,2,7,1,11,2
2,1.315268,0,2,52,3,10,1
2,1.067451,0,3,53,3,10,4
2,1.749835,0,3,129,3,4,7
2,1.14981,0,2,87,4,9,8
2,5.900886,1,2,99,1,2,6
2,2.285645,0,3,46,2,12,4
2,1.472167,0,3,106,1,2,7
2,1.825775,0,2,136,4,3,5
2,0.990919,0,2,100,1,2,6
2,1.348862,0,1,66,3,10,2
2,1.932682,0,1,32,2,11,8
2,1.259532,1,1,37,2,9,8
2,0.942764,1,1,85,4,9,2
2,1.095417,0,3,22,1,12,4
2,1.392857,0,3,98,1,2,7
2,1.605934,1,2,96,4,12,1
2,1.315699,0,3,10,1,12,3
2,1.492659,0,1,92,4,11,2
2,1.014752,0,2,123,3,4,5
2,1.17103,0,3,17,1,10,3
2,2.2506,0,3,82,4,12,3
2,2.597403,0,2,135,4,3,5
2,2.17802,0,2,24,1,12,2
2,1.183949,0,1,138,4,3,6
2,0.942539,0,2,103,1,2,6
2,1.829441,0,1,73,4,9,2
2,1.52237,0,1,25,2,9,1
2,2.178846,0,3,134,4,3,7
2,1.304505,0,3,93,4,11,4
2,1.185552,0,2,111,2,1,6
2,1.880025,0,1,80,4,11,2
2,0.937947,0,2,36,2,12,2
2,1.256998,0,1,30,2,10,8
2,1.332773,0,3,45,2,11,3
2,1.429103,0,3,86,4,9,3
2,1.265172,0,3,141,4,3,7
2,1.05221,0,1,71,3,12,2
2,0.975376,0,2,91,4,11,1
2,1.230044,0,3,125,3,4,7
2,1.282039,0,3,9,1,11,4
2,1.308087,0,1,102,1,2,5
2,0.893383,0,1,8,1,11,8
2,0.815137,0,1,78,4,10,2
2,1.23619,0,3,33,2,11,4
2,1.376189,0,1,35,2,12,1
2,0.982321,0,1,128,3,4,6
2,0.804445,0,2,127,3,4,5
2,1.617792,0,3,41,2,10,3
2,1.550423,0,3,122,3,4,7
2,1.349267,0,1,83,4,12,2
2,0.941282,0,2,19,1,11,2
2,1.580905,0,1,133,4,3,6
2,1.0507,0,3,70,3,12,4
2,1.158315,0,3,5,1,10,4
2,1.429622,0,2,139,4,3,5
2,1.121421,0,1,104,1,2,5
2,1.434224,0,1,119,2,1,5
2,2.870176,0,2,144,4,3,5
2,1.072268,1,2,84,4,12,8
2,1.995101,0,2,79,4,11,8
2,1.457235,0,3,89,4,10,3
2,1.204066,0,2,48,2,12,2
2,1.009974,0,1,59,3,12,2
2,2.391276,0,3,74,4,9,4
2,1.15699,0,1,90,4,10,2
2,2.139981,0,1,44,2,11,1
2,1.220446,0,3,142,4,3,7
2,1.168744,0,1,61,3,9,2
2,1.366654,1,2,63,3,9,8
2,1.077747,0,1,97,1,2,5
2,1.088026,0,1,116,2,1,5
2,0.873074,0,2,15,1,9,2
2,1.172502,0,2,43,2,11,2
2,1.626793,1,1,18,1,10,1
2,0.903456,1,2,124,3,4,5
2,2.929291,0,1,47,2,12,8
2,1.0166,0,2,60,3,12,8
2,2.213862,0,1,42,2,10,1
2,1.226132,0,1,140,4,3,6
2,1.559178,0,2,31,2,11,2
2,1.461867,0,2,27,2,9,2
2,0.888574,0,2,51,3,9,1
2,0.810346,0,2,72,3,12,1
2,1.368242,0,1,23,1,12,8
2,1.087089,0,3,130,3,4,7
2,1.480861,0,2,76,4,10,1
2,1.122194,1,2,12,1,12,2
2,1.794286,0,3,77,4,10,4
2,1.937185,0,2,115,2,1,6
2,1.289038,0,3,14,1,9,4
2,1.298818,0,1,56,3,11,2
2,4.228008,1,2,4,1,10,2
2,1.519285,0,2,88,4,10,8
2,0.856512,0,2,39,2,9,2
2,1.411787,0,1,95,4,12,2
2,1.088475,0,1,114,2,1,5
2,1.360441,0,3,62,3,9,3
2,1.287804,0,1,1,1,9,1
2,3.073322,0,1,78,4,10,2
2,0.932254,0,2,132,3,4,5
2,0.900342,0,1,121,3,4,6
2,1.2775,0,2,63,3,9,8
2,1.823914,0,3,46,2,12,4
2,1.108722,0,3,10,1,12,3
2,2.702246,1,2,72,3,12,1
2,1.495184,0,2,31,2,11,2
2,1.216824,0,1,102,1,2,5
2,1.117187,0,3,129,3,4,7
2,1.006422,0,2,48,2,12,2
2,1.155472,1,2,64,3,10,8
2,1.186188,0,3,142,4,3,7
2,1.280777,1,1,71,3,12,2
2,1.689956,0,3,101,1,2,7
2,1.491837,0,2,15,1,9,2
2,0.974151,0,2,91,4,11,1
2,1.077381,0,1,131,3,4,6
2,1.423543,0,3,41,2,10,3
2,1.611841,0,2,100,1,2,6
2,1.480646,0,1,59,3,12,2
2,2.459125,0,2,124,3,4,5
2,0.86194,0,2,135,4,3,5
2,1.305624,0,3,105,1,2,7
2,1.370886,0,2,76,4,10,1
2,1.416396,0,3,141,4,3,7
2,1.149681,0,1,68,3,11,2
2,2.029213,0,3,70,3,12,4
2,1.689193,0,2,39,2,9,2
2,1.682935,0,3,117,2,1,7
2,1.476694,0,2,87,4,9,8
2,1.087381,0,2,127,3,4,5
2,1.10491,0,2,99,1,2,6
2,2.457971,0,2,79,4,11,8
2,1.094352,0,3,93,4,11,4
2,1.095555,0,2,120,2,1,6
2,0.679645,0,2,7,1,11,2
2,1.178667,0,1,104,1,2,5
2,1.520119,0,3,125,3,4,7
2,1.024857,0,2,16,1,10,2
2,0.965569,0,3,65,3,10,3
2,1.340031,0,2,136,4,3,5
2,1.156176,1,3,86,4,9,3
2,1.228005,0,3,33,2,11,4
2,1.640194,0,2,28,2,10,2
2,0.996128,0,1,47,2,12,8
2,0.881748,0,1,97,1,2,5
2,1.207422,0,3,34,2,12,3
2,1.395928,0,2,96,4,12,1
2,0.793841,0,2,84,4,12,8
2,1.127659,0,3,26,2,9,3
2,0.992583,1,2,4,1,10,2
2,1.294081,0,3,98,1,2,7
2,1.927479,0,3,38,2,9,4
2,1.055738,0,2,24,1,12,2
2,0.9787,0,3,106,1,2,7
2,1.66522,0,1,119,2,1,5
2,0.812221,0,2,108,1,2,6
2,1.1057,0,1,6,1,10,8
2,1.074548,0,3,118,2,1,7
2,1.309452,0,1,20,1,11,1
2,0.886103,0,1,143,4,3,6
2,1.712357,1,3,17,1,10,3
2,2.105177,0,1,32,2,11,8
2,0.897991,0,2,19,1,11,2
2,0.755914,0,2,115,2,1,6
2,1.658449,0,1,56,3,11,2
2,1.086602,0,3,134,4,3,7
2,1.120423,0,3,130,3,4,7
2,1.040657,0,3,110,2,1,7
2,1.444956,0,1,80,4,11,2
2,0.928429,0,1,107,1,2,5
2,1.176023,1,3,122,3,4,7
2,1.446725,0,2,51,3,9,1
2,1.042902,0,1,37,2,9,8
2,1.711023,1,2,55,3,11,8
2,1.016509,0,3,74,4,9,4
2,1.612151,0,2,60,3,12,8
2,1.018203,0,3,113,2,1,7
2,1.093976,0,3,82,4,12,3
2,1.160112,0,1,73,4,9,2
2,1.24791,0,1,13,1,9,8
2,1.067198,1,2,144,4,3,5
2,2.22214,0,2,88,4,10,8
2,1.282836,0,3,5,1,10,4
2,1.196644,0,2,27,2,9,2
2,0.969553,0,1,42,2,10,1
2,0.976149,1,1,116,2,1,5
2,1.574665,0,1,92,4,11,2
2,1.077711,0,2,139,4,3,5
2,1.872728,0,1,114,2,1,5
2,0.850525,0,3,94,4,12,4
2,0.997803,0,3,137,4,3,7
2,1.091188,0,3,21,1,11,3
2,1.116374,0,1,11,1,12,1
2,1.053442,0,3,14,1,9,4
2,1.016645,0,1,61,3,9,2
2,1.334239,0,2,112,2,1,6
2,1.205133,0,2,103,1,2,6
2,1.850634,0,3,29,2,10,4
2,1.710147,0,2,75,4,9,1
2,1.344072,0,3,9,1,11,4
2,0.967342,0,2,40,2,10,2
2,1.069658,0,1,35,2,12,1
2,0.961306,0,1,85,4,9,2
2,1.440405,0,1,66,3,10,2
2,2.548442,1,1,49,3,9,2
2,1.883258,0,1,95,4,12,2
2,1.772842,0,3,89,4,10,3
2,1.027446,0,1,133,4,3,6
2,1.544116,1,2,43,2,11,2
2,1.248002,0,2,52,3,10,1
2,0.971502,0,1,126,3,4,6
2,1.922787,0,1,18,1,10,1
2,1.066828,0,3,81,4,11,3
2,1.069396,0,1,8,1,11,8
2,1.455495,0,2,36,2,12,2
2,1.03589,0,3,58,3,12,3
2,2.191096,0,3,69,3,11,4
2,1.212527,0,3,77,4,10,4
2,1.193724,0,3,22,1,12,4
2,1.127436,0,3,2,1,9,3
2,1.568809,0,1,90,4,10,2
2,1.23893,0,1,25,2,9,1
2,1.634958,0,2,123,3,4,5
2,1.118953,0,2,67,3,11,1
2,0.983788,0,1,128,3,4,6
2,1.101162,0,2,12,1,12,2
2,2.270792,0,2,3,1,9,2
2,1.017762,0,1,30,2,10,8
2,1.181794,0,3,53,3,10,4
2,0.971671,0,1,140,4,3,6
2,1.482456,1,1,138,4,3,6
2,0.876294,0,1,44,2,11,1
2,1.143045,0,1,109,2,1,5
2,0.767451,0,1,83,4,12,2
2,0.733484,0,1,23,1,12,8
2,1.389615,0,3,50,3,9,4
2,0.987632,0,1,54,3,10,2
2,0.945069,0,3,45,2,11,3
2,1.296984,0,3,57,3,11,3
2,1.298873,0,2,111,2,1,6
3,1.542413,0,2,101,1,2,6
3,1.077413,0,3,47,2,12,3
3,1.551569,1,1,124,3,4,6
3,1.167627,0,3,107,1,2,7
3,1.630357,0,3,23,1,12,3
3,1.473835,0,3,8,1,11,4
3,2.100862,0,2,113,2,1,6
3,1.230061,0,1,21,1,11,8
3,1.217145,0,1,40,2,10,8
3,1.318259,0,1,10,1,12,8
3,2.014847,0,3,61,3,9,4
3,0.891156,0,1,105,1,2,5
3,2.093252,1,1,99,1,2,5
3,1.815386,0,2,108,1,2,6
3,1.596584,0,1,63,3,9,2
3,1.785165,0,3,44,2,11,3
3,1.831319,0,2,78,4,10,8
3,1.147115,0,1,112,2,1,5
3,1.538557,0,3,115,2,1,7
3,1.370657,0,2,60,3,12,1
3,0.98531,0,2,41,2,10,2
3,1.079136,0,1,69,3,11,2
3,1.160581,0,1,117,2,1,5
3,1.503802,0,1,46,2,12,1
3,1.345225,0,3,97,1,2,7
3,1.193553,0,1,94,4,12,2
3,1.671503,0,2,66,3,10,1
3,2.042117,0,2,30,2,10,2
3,1.237964,0,3,91,4,11,3
3,2.426187,0,1,70,3,12,2
3,1.318351,0,3,92,4,11,4
3,1.302561,0,3,68,3,11,4
3,1.224581,0,3,80,4,11,3
3,1.484841,0,2,102,1,2,6
3,1.614935,0,3,67,3,11,3
3,1.235326,0,2,144,4,3,5
3,1.111466,1,2,50,3,9,8
3,1.184301,0,1,22,1,12,1
3,1.181514,0,1,88,4,10,2
3,1.236322,0,3,139,4,3,7
3,1.424287,0,2,5,1,10,2
3,1.804513,0,3,121,3,4,7
3,1.241983,0,2,14,1,9,2
3,1.037907,0,2,65,3,10,8
3,1.106012,0,3,59,3,12,4
3,1.738284,0,1,33,2,11,1
3,2.050814,0,3,71,3,12,3
3,1.094204,0,1,136,4,3,6
3,0.928759,0,2,134,4,3,5
3,0.976804,0,1,111,2,1,5
3,1.175234,0,2,38,2,9,2
3,1.19845,0,3,25,2,9,3
3,1.507812,0,1,64,3,10,2
3,1.740316,0,1,93,4,11,2
3,1.531905,0,1,142,4,3,6
3,0.867982,0,2,74,4,9,8
3,1.215344,0,1,81,4,11,2
3,0.787834,0,2,72,3,12,8
3,1.937572,0,1,3,1,9,8
3,1.033688,0,2,122,3,4,5
3,1.037522,0,1,16,1,10,8
3,1.02545,0,2,26,2,9,2
3,1.158661,0,3,85,4,9,4
3,1.062023,0,2,138,4,3,5
3,1.152702,0,1,87,4,9,2
3,0.912453,0,2,89,4,10,8
3,1.57758,1,1,118,2,1,5
3,1.480079,0,3,43,2,11,4
3,0.913599,0,2,125,3,4,5
3,1.07457,0,2,12,1,12,2
3,1.141613,0,2,17,1,10,2
3,1.421134,0,3,37,2,9,4
3,1.385849,0,2,62,3,9,1
3,1.839958,1,3,55,3,11,4
3,1.347546,0,3,104,1,2,7
3,1.186637,0,3,1,1,9,3
3,1.24881,0,3,49,3,9,3
3,1.051886,0,2,77,4,10,1
3,1.11924,0,1,129,3,4,6
3,1.112358,0,3,143,4,3,7
3,1.697003,0,1,4,1,10,1
3,1.273985,0,1,9,1,11,1
3,1.540255,0,3,103,1,2,7
3,1.244991,0,2,98,1,2,6
3,1.103981,0,2,48,2,12,2
3,1.121069,0,2,6,1,10,2
3,0.874232,0,2,42,2,10,2
3,1.092719,0,3,83,4,12,4
3,0.910118,0,1,130,3,4,6
3,0.895932,0,2,137,4,3,5
3,0.760845,0,2,90,4,10,1
3,0.871657,0,1,45,2,11,8
3,0.810055,0,2,29,2,10,2
3,0.855656,0,3,20,1,11,3
3,1.3624,0,3,140,4,3,7
3,0.809339,0,2,96,4,12,8
3,1.310947,0,3,13,1,9,4
3,0.951696,0,2,114,2,1,6
3,1.5351,0,3,56,3,11,3
3,0.813885,0,2,53,3,10,1
3,1.264959,0,1,57,3,11,2
3,1.059552,0,3,95,4,12,3
3,1.294304,0,1,75,4,9,2
3,0.985274,0,1,28,2,10,1
3,0.911279,0,1,141,4,3,6
3,1.670824,0,1,58,3,12,2
3,1.281944,0,3,32,2,11,4
3,1.14852,1,2,54,3,10,8
3,1.122774,0,3,128,3,4,7
3,1.435753,0,1,34,2,12,8
3,1.383516,0,3,109,2,1,7
3,1.581215,0,3,116,2,1,7
3,1.147868,0,2,84,4,12,1
3,1.146526,0,1,82,4,12,2
3,0.849612,0,2,36,2,12,2
3,0.933317,0,1,106,1,2,5
3,1.005039,0,3,127,3,4,7
3,0.942488,0,2,2,1,9,2
3,0.97453,0,3,131,3,4,7
3,0.861128,0,2,86,4,9,1
3,1.231573,0,1,52,3,10,2
3,1.363576,0,1,135,4,3,6
3,0.842583,0,2,24,1,12,2
3,0.958234,0,3,35,2,12,4
3,0.853461,0,2,110,2,1,6
3,0.832486,0,2,126,3,4,5
3,1.044504,1,3,133,4,3,7
3,1.256428,0,3,7,1,11,3
3,1.123811,0,2,18,1,10,2
3,1.148663,0,1,27,2,9,8
3,1.250945,0,3,11,1,12,4
3,1.135049,0,1,39,2,9,1
3,1.19073,0,3,119,2,1,7
3,1.293332,0,1,76,4,10,2
3,1.087142,0,3,79,4,11,4
3,1.176844,0,1,15,1,9,1
3,0.879797,0,2,132,3,4,5
3,1.105145,0,3,31,2,11,3
3,1.018452,0,1,100,1,2,5
3,0.822489,0,2,120,2,1,6
3,0.979734,0,3,73,4,9,3
3,1.37783,0,1,123,3,4,6
3,1.552889,0,3,19,1,11,4
3,1.079946,0,1,51,3,9,2
3,1.454778,0,1,82,4,12,2
3,0.865993,0,2,113,2,1,6
3,0.860397,0,2,102,1,2,6
3,0.831483,0,1,124,3,4,6
3,0.787524,0,2,78,4,10,8
3,0.85759,0,2,53,3,10,1
3,1.100946,0,1,57,3,11,2
3,0.933932,0,1,88,4,10,2
3,1.070171,0,3,121,3,4,7
3,0.976631,0,1,28,2,10,1
3,1.127448,0,1,129,3,4,6
3,0.983722,0,2,98,1,2,6
3,0.877878,0,1,105,1,2,5
3,0.919653,0,3,80,4,11,3
3,1.136791,0,1,34,2,12,8
3,0.824221,0,2,41,2,10,2
3,0.836454,0,1,21,1,11,8
3,0.99339,0,1,69,3,11,2
3,0.935298,0,3,59,3,12,4
3,1.022933,0,3,91,4,11,3
3,1.068188,0,2,62,3,9,1
3,0.870364,0,1,93,4,11,2
3,0.840953,0,2,24,1,12,2
3,0.869172,0,2,144,4,3,5
3,0.911677,0,3,1,1,9,3
3,1.032136,0,3,139,4,3,7
3,1.075617,0,3,73,4,9,3
3,0.878433,0,1,117,2,1,5
3,0.976731,0,3,71,3,12,3
3,0.92652,0,1,46,2,12,1
3,0.896172,0,2,110,2,1,6
3,1.033323,0,1,87,4,9,2
3,1.036721,0,3,79,4,11,4
3,1.000887,0,1,63,3,9,2
3,0.982438,0,3,68,3,11,4
3,1.147444,0,1,130,3,4,6
3,0.835452,0,2,5,1,10,2
3,0.815626,0,1,106,1,2,5
3,0.940173,0,3,143,4,3,7
3,1.019885,0,1,123,3,4,6
3,1.336916,0,2,86,4,9,1
3,1.015901,0,2,101,1,2,6
3,0.980944,0,3,140,4,3,7
3,1.21902,0,2,38,2,9,2
3,0.847518,0,3,119,2,1,7
3,1.059356,0,3,23,1,12,3
3,0.893575,0,1,40,2,10,8
3,0.911839,0,3,109,2,1,7
3,0.93714,0,2,126,3,4,5
3,1.145074,0,1,94,4,12,2
3,0.911656,0,3,56,3,11,3
3,1.097119,0,1,76,4,10,2
3,0.874172,0,3,37,2,9,4
3,0.780073,0,2,96,4,12,8
3,0.842383,0,2,36,2,12,2
3,0.910737,0,1,141,4,3,6
3,1.01541,0,3,128,3,4,7
3,0.940328,0,3,85,4,9,4
3,0.931432,0,3,104,1,2,7
3,0.94767,0,2,48,2,12,2
3,0.946513,1,2,138,4,3,5
3,1.170065,0,3,61,3,9,4
3,1.057146,0,1,16,1,10,8
3,0.948236,0,2,54,3,10,8
3,0.851415,0,2,120,2,1,6
3,0.839119,0,2,132,3,4,5
3,0.843282,0,2,74,4,9,8
3,0.79077,0,1,52,3,10,2
3,0.956703,0,3,31,2,11,3
3,0.844272,0,3,97,1,2,7
3,0.999593,0,3,92,4,11,4
3,0.941316,0,3,49,3,9,3
3,1.037007,0,1,10,1,12,8
3,0.912502,0,1,22,1,12,1
3,0.849007,0,2,72,3,12,8
3,0.988259,0,3,67,3,11,3
3,1.161686,0,1,39,2,9,1
3,0.832851,0,2,12,1,12,2
3,1.109151,0,2,134,4,3,5
3,0.822728,0,2,66,3,10,1
3,0.858244,0,1,142,4,3,6
3,0.773786,0,2,84,4,12,1
3,0.780694,0,2,89,4,10,8
3,0.779138,0,1,51,3,9,2
3,1.208928,1,3,133,4,3,7
3,1.197551,0,1,111,2,1,5
3,1.050056,0,1,118,2,1,5
3,1.050538,0,3,131,3,4,7
3,0.854064,0,3,44,2,11,3
3,0.857574,0,3,127,3,4,7
3,0.907883,0,2,60,3,12,1
3,0.934176,0,1,99,1,2,5
3,0.882029,0,3,20,1,11,3
3,0.955959,0,3,19,1,11,4
3,1.106768,0,3,35,2,12,4
3,1.396585,0,3,95,4,12,3
3,0.952641,0,1,33,2,11,1
3,1.312051,0,1,27,2,9,8
3,0.777272,0,2,50,3,9,8
3,0.926826,0,1,112,2,1,5
3,1.008096,0,3,55,3,11,4
3,1.525376,0,3,7,1,11,3
3,1.341298,0,3,25,2,9,3
3,1.06961,0,2,2,1,9,2
3,0.832745,0,2,114,2,1,6
3,0.804474,0,1,70,3,12,2
3,0.938136,0,3,13,1,9,4
3,0.905142,0,1,64,3,10,2
3,0.819122,0,2,14,1,9,2
3,0.927463,0,3,107,1,2,7
3,0.783677,0,2,26,2,9,2
3,0.693461,0,1,81,4,11,2
3,0.918638,0,2,29,2,10,2
3,0.790842,0,2,122,3,4,5
3,0.853394,0,1,4,1,10,1
3,0.928667,0,3,115,2,1,7
3,1.040541,0,3,47,2,12,3
3,0.788229,0,2,6,1,10,2
3,0.674509,0,2,108,1,2,6
3,0.812347,0,1,58,3,12,2
3,0.754198,0,2,42,2,10,2
3,0.745181,0,2,17,1,10,2
3,1.160194,0,3,83,4,12,4
3,0.943005,0,3,8,1,11,4
3,0.870297,0,3,103,1,2,7
3,0.992605,0,3,43,2,11,4
3,1.142546,0,1,75,4,9,2
3,0.861945,0,1,45,2,11,8
3,1.360174,1,1,15,1,9,1
3,0.903163,0,1,9,1,11,1
3,1.00032,0,3,116,2,1,7
3,0.837068,0,1,100,1,2,5
3,1.000617,0,2,90,4,10,1
3,1.006477,0,1,3,1,9,8
3,0.81982,0,2,77,4,10,1
3,1.352681,0,3,11,1,12,4
3,1.135081,0,2,137,4,3,5
3,1.231622,0,3,32,2,11,4
3,0.827759,0,2,18,1,10,2
3,1.171801,0,1,136,4,3,6
3,0.785864,0,2,65,3,10,8
3,1.000093,0,2,125,3,4,5
3,0.828671,0,2,30,2,10,2
3,1.119951,0,1,135,4,3,6
4,3.797673,1,1,120,2,1,5
4,2.959649,0,3,110,2,1,7
4,2.774666,1,3,74,4,9,3
4,3.04428,1,3,7,1,11,3
4,3.359845,0,2,33,2,11,2
4,2.64567,0,3,115,2,1,7
4,3.337015,1,3,68,3,11,3
4,2.71903,0,1,112,2,1,5
4,1.615867,0,1,12,1,12,8
4,1.166505,0,2,39,2,9,2
4,1.656737,0,2,87,4,9,1
4,2.236737,0,2,6,1,10,2
4,1.554495,0,1,144,4,3,6
4,1.708136,0,3,86,4,9,4
4,1.430521,0,1,48,2,12,1
4,1.611596,0,3,119,2,1,7
4,1.723056,1,3,43,2,11,4
4,1.980072,0,2,21,1,11,2
4,2.307826,0,2,18,1,10,2
4,1.510033,0,1,60,3,12,2
4,3.681678,0,3,116,2,1,7
4,3.081547,0,2,27,2,9,2
4,1.891344,1,3,80,4,11,4
4,1.438824,0,1,85,4,9,2
4,2.547632,1,3,2,1,9,4
4,2.843877,0,2,77,4,10,1
4,1.318329,0,2,81,4,11,8
4,1.963415,0,2,113,2,1,6
4,1.489769,0,1,109,2,1,5
4,3.006776,0,2,141,4,3,5
4,1.378898,0,2,135,4,3,5
4,2.931633,0,1,72,3,12,2
4,4.234627,0,1,36,2,12,8
4,1.155963,0,2,75,4,9,8
4,2.189462,0,3,122,3,4,7
4,2.117843,0,2,78,4,10,1
4,1.926226,1,1,16,1,10,8
4,2.743562,0,1,100,1,2,5
4,5.031142,0,3,23,1,12,4
4,2.583592,0,1,10,1,12,1
4,1.894881,0,3,55,3,11,3
4,2.392282,0,2,29,2,10,2
4,1.43135,0,1,130,3,4,6
4,3.501155,0,1,82,4,12,2
4,2.476289,1,1,13,1,9,1
4,1.542944,0,3,50,3,9,3
4,3.56107,0,1,136,4,3,6
4,2.333312,0,3,26,2,9,4
4,1.238395,0,1,64,3,10,2
4,1.084923,0,2,137,4,3,5
4,1.249599,0,2,125,3,4,5
4,1.42466,0,2,111,2,1,6
4,2.014929,0,3,35,2,12,3
4,1.972546,0,3,104,1,2,7
4,2.213426,1,1,121,3,4,6
4,3.203022,1,2,9,1,11,2
4,1.398244,0,2,63,3,9,1
4,0.983103,0,2,51,3,9,8
4,1.639456,1,2,89,4,10,8
4,2.29417,0,3,140,4,3,7
4,1.544839,1,2,17,1,10,2
4,2.785931,0,3,71,3,12,3
4,2.055749,0,2,41,2,10,2
4,2.251422,0,2,105,1,2,6
4,1.360784,0,2,30,2,10,2
4,2.690682,1,3,56,3,11,4
4,4.028586,0,3,143,4,3,7
4,2.96539,0,2,101,1,2,6
4,2.347213,1,3,31,2,11,3
4,5.715557,1,3,134,4,3,7
4,6.534746,0,2,65,3,10,8
4,0.973996,0,2,138,4,3,5
4,1.311822,0,1,142,4,3,6
4,2.027466,0,1,1,1,9,8
4,1.248954,0,1,118,2,1,5
4,1.327476,0,3,67,3,11,4
4,1.898967,0,2,57,3,11,8
4,1.893927,1,1,70,3,12,2
4,2.736726,1,1,73,4,9,2
4,1.535626,0,1,34,2,12,1
4,0.913768,0,2,69,3,11,1
4,1.526626,0,3,98,1,2,7
4,1.425463,0,1,84,4,12,2
4,1.927396,1,3,44,2,11,3
4,1.240833,0,1,46,2,12,8
4,2.232124,1,3,79,4,11,3
4,1.757441,1,3,127,3,4,7
4,1.213744,0,2,93,4,11,1
4,1.813979,1,3,20,1,11,3
4,2.866606,0,3,131,3,4,7
4,1.50175,0,3,95,4,12,3
4,1.720049,0,1,94,4,12,2
4,1.667246,0,3,83,4,12,4
4,1.327916,0,1,133,4,3,6
4,1.459529,1,1,22,1,12,8
4,2.176368,0,3,59,3,12,4
4,4.456636,1,3,38,2,9,3
4,1.383279,0,2,123,3,4,5
4,1.336162,0,1,52,3,10,2
4,1.417798,0,2,102,1,2,6
4,1.858074,0,2,126,3,4,5
4,1.038155,0,1,97,1,2,5
4,1.460921,0,1,24,1,12,1
4,1.635481,1,2,99,1,2,6
4,1.208385,0,2,3,1,9,2
4,1.384897,0,1,108,1,2,5
4,2.024864,1,2,90,4,10,8
4,3.30269,0,2,129,3,4,5
4,1.319402,0,1,25,2,9,8
4,1.474437,0,1,40,2,10,8
4,1.912193,1,3,19,1,11,4
4,1.202476,0,1,28,2,10,1
4,1.5229,0,3,103,1,2,7
4,1.867826,0,2,45,2,11,2
4,1.169177,0,1,124,3,4,6
4,1.353783,0,3,139,4,3,7
4,2.243951,0,3,62,3,9,4
4,1.857424,0,2,53,3,10,1
4,2.405143,0,3,32,2,11,4
4,1.867054,1,3,14,1,9,3
4,3.830839,1,1,4,1,10,1
4,1.449122,0,2,5,1,10,2
4,2.582133,0,3,8,1,11,4
4,2.004009,0,3,92,4,11,3
4,1.843147,0,3,11,1,12,3
4,1.864367,0,1,49,3,9,2
4,2.276761,0,2,117,2,1,6
4,2.518916,1,3,107,1,2,7
4,2.143233,0,1,61,3,9,2
4,2.09689,0,1,96,4,12,2
4,3.459209,0,3,47,2,12,4
4,1.636997,0,2,42,2,10,2
4,1.818809,0,1,76,4,10,2
4,2.073306,1,3,128,3,4,7
4,1.477129,0,2,114,2,1,6
4,1.554223,0,1,106,1,2,5
4,3.058804,0,1,132,3,4,6
4,3.18988,0,3,91,4,11,4
4,1.914156,0,2,54,3,10,1
4,3.444308,0,2,15,1,9,2
4,4.997352,0,1,88,4,10,2
4,2.877848,1,1,58,3,12,2
4,2.081075,1,2,66,3,10,8
4,1.15522,0,1,37,2,9,1
4,1.490258,0,3,122,3,4,7
4,1.310878,0,3,14,1,9,3
4,1.601672,1,3,56,3,11,4
4,0.906454,0,1,12,1,12,8
4,1.190286,1,2,137,4,3,5
4,1.014989,0,1,58,3,12,2
4,1.479228,1,3,26,2,9,4
4,1.708648,1,3,127,3,4,7
4,0.919097,0,1,34,2,12,1
4,2.372021,0,3,71,3,12,3
4,0.786482,0,2,101,1,2,6
4,1.38816,0,2,9,1,11,2
4,0.852429,0,2,111,2,1,6
4,0.963126,0,1,85,4,9,2
4,1.989107,0,3,83,4,12,4
4,1.04387,0,2,51,3,9,8
4,0.915061,0,1,48,2,12,1
4,0.711679,0,1,25,2,9,8
4,1.64448,0,2,54,3,10,1
4,1.233121,0,1,76,4,10,2
4,1.55252,0,2,42,2,10,2
4,1.29689,0,1,124,3,4,6
4,2.300844,0,3,38,2,9,3
4,0.975764,0,2,78,4,10,1
4,1.417186,0,2,99,1,2,6
4,1.119551,0,1,112,2,1,5
4,1.428012,0,1,28,2,10,1
4,1.546495,0,1,73,4,9,2
4,0.716761,0,1,84,4,12,2
4,0.713704,0,2,75,4,9,8
4,0.942356,0,1,121,3,4,6
4,1.264396,0,3,67,3,11,4
4,1.15107,1,3,143,4,3,7
4,1.433428,0,1,70,3,12,2
4,2.103393,0,3,104,1,2,7
4,1.097116,1,1,109,2,1,5
4,1.326371,0,1,82,4,12,2
4,1.744231,1,2,77,4,10,1
4,1.234074,0,2,129,3,4,5
4,1.256633,0,3,8,1,11,4
4,1.167372,0,2,113,2,1,6
4,1.034047,0,1,37,2,9,1
4,1.559767,0,2,138,4,3,5
4,1.570052,1,2,65,3,10,8
4,2.378805,0,1,94,4,12,2
4,1.280816,0,2,89,4,10,8
4,1.198348,0,1,100,1,2,5
4,0.918135,0,1,108,1,2,5
4,0.793471,0,2,123,3,4,5
4,0.620288,0,2,3,1,9,2
4,0.852589,0,2,5,1,10,2
4,1.570685,1,3,134,4,3,7
4,1.802646,1,3,74,4,9,3
4,1.706244,0,3,140,4,3,7
4,1.244791,0,3,23,1,12,4
4,1.48993,0,1,120,2,1,5
4,0.990915,0,1,1,1,9,8
4,1.480701,1,2,63,3,9,1
4,1.277118,0,2,126,3,4,5
4,1.745455,0,3,115,2,1,7
4,1.475327,0,2,17,1,10,2
4,0.879674,0,2,18,1,10,2
4,0.8454,0,2,53,3,10,1
4,0.979559,0,1,60,3,12,2
4,1.404212,0,3,20,1,11,3
4,0.773093,0,2,66,3,10,8
4,1.262678,0,1,52,3,10,2
4,1.572519,0,1,106,1,2,5
4,0.844926,0,2,69,3,11,1
4,0.996146,0,1,142,4,3,6
4,0.875209,0,1,118,2,1,5
4,1.20964,0,3,68,3,11,3
4,1.75428,0,3,7,1,11,3
4,1.738196,0,2,81,4,11,8
4,1.003499,0,1,40,2,10,8
4,0.749026,0,1,88,4,10,2
4,0.767867,0,2,102,1,2,6
4,1.200819,0,2,135,4,3,5
4,0.801061,0,2,6,1,10,2
4,1.194764,0,3,59,3,12,4
4,1.187177,0,3,80,4,11,4
4,1.43536,0,3,98,1,2,7
4,1.017769,0,1,72,3,12,2
4,0.8901,0,2,45,2,11,2
4,0.718721,0,2,93,4,11,1
4,1.363094,0,3,43,2,11,4
4,1.333762,0,3,31,2,11,3
4,1.688061,1,1,132,3,4,6
4,1.259671,0,3,35,2,12,3
4,1.297235,0,1,10,1,12,1
4,1.269084,1,3,44,2,11,3
4,1.1708,0,1,144,4,3,6
4,1.365018,0,3,2,1,9,4
4,2.629273,1,1,64,3,10,2
4,1.010644,0,3,103,1,2,7
4,2.697942,0,1,22,1,12,8
4,0.843741,0,2,90,4,10,8
4,1.610371,0,3,62,3,9,4
4,0.937417,0,2,117,2,1,6
4,1.003825,0,1,36,2,12,8
4,1.756663,0,1,24,1,12,1
4,1.556771,0,3,131,3,4,7
4,2.021937,0,3,86,4,9,4
4,1.252264,0,3,92,4,11,3
4,0.946151,0,2,57,3,11,8
4,2.059791,0,3,139,4,3,7
4,1.272521,0,3,79,4,11,3
4,1.093829,0,2,39,2,9,2
4,1.594116,0,3,55,3,11,3
4,1.673638,0,3,116,2,1,7
4,1.574724,0,2,125,3,4,5
4,1.102412,0,1,133,4,3,6
4,1.179503,0,1,61,3,9,2
4,1.108307,0,2,141,4,3,5
4,1.488781,1,1,4,1,10,1
4,1.172691,0,1,16,1,10,8
4,0.590046,0,2,15,1,9,2
4,0.903584,0,1,46,2,12,8
4,0.995296,0,2,33,2,11,2
4,0.76341,1,3,91,4,11,4
4,1.366979,0,3,50,3,9,3
4,0.95177,0,2,87,4,9,1
4,2.016829,0,3,107,1,2,7
4,1.662616,1,3,47,2,12,4
4,1.028154,0,3,119,2,1,7
4,0.996106,0,2,27,2,9,2
4,1.268027,0,3,110,2,1,7
4,1.698118,0,2,105,1,2,6
4,1.26173,0,1,96,4,12,2
4,2.163438,1,2,30,2,10,2
4,2.587238,0,2,41,2,10,2
4,0.889226,0,2,114,2,1,6
4,1.350769,1,3,19,1,11,4
4,1.288802,0,1,136,4,3,6
4,0.948699,0,1,97,1,2,5
4,0.791023,0,1,13,1,9,1
4,1.08848,0,2,21,1,11,2
4,1.03878,0,1,130,3,4,6
4,1.237557,0,3,128,3,4,7
4,1.243166,0,3,95,4,12,3
4,1.057885,0,1,49,3,9,2
4,1.271513,0,2,29,2,10,2
4,1.580312,0,3,32,2,11,4
4,2.644576,1,3,11,1,12,3
5,2.450125,1,3,52,3,10,3
5,1.301771,0,3,103,1,2,7
5,1.375257,0,1,116,2,1,5
5,1.325731,0,2,53,3,10,8
5,1.934791,1,2,48,2,12,2
5,2.678183,1,3,112,2,1,7
5,1.880735,0,2,29,2,10,2
5,0.97004,0,1,114,2,1,5
5,1.345465,0,3,43,2,11,4
5,1.216279,0,2,74,4,9,1
5,1.165114,0,2,84,4,12,1
5,0.739736,0,2,122,3,4,5
5,1.619612,0,3,22,1,12,3
5,0.736003,0,2,60,3,12,1
5,1.343788,1,3,107,1,2,7
5,2.688,0,2,109,2,1,6
5,1.577914,0,3,136,4,3,7
5,1.351868,0,3,58,3,12,3
5,2.551069,0,1,44,2,11,8
5,1.261653,0,2,113,2,1,6
5,1.408659,0,3,70,3,12,4
5,0.862088,0,2,38,2,9,2
5,1.545694,0,1,105,1,2,5
5,0.840883,0,1,117,2,1,5
5,1.828777,1,1,56,3,11,2
5,2.128534,0,1,45,2,11,1
5,1.049674,0,2,86,4,9,8
5,1.396234,0,3,10,1,12,4
5,1.681966,0,3,28,2,10,3
5,1.372056,0,2,77,4,10,8
5,1.802178,0,2,1,1,9,2
5,1.520193,1,2,98,1,2,6
5,1.408081,0,3,7,1,11,3
5,2.541816,0,2,26,2,9,2
5,1.24512,0,3,11,1,12,4
5,2.040585,1,1,69,3,11,2
5,2.612975,0,3,94,4,12,4
5,1.873649,1,1,138,4,3,6
5,1.540528,1,1,75,4,9,2
5,2.027544,0,2,2,1,9,2
5,1.176059,1,2,17,1,10,2
5,2.030042,1,2,13,1,9,2
5,2.338,0,1,51,3,9,2
5,1.722453,0,3,64,3,10,4
5,1.715351,0,2,89,4,10,1
5,1.068008,0,1,135,4,3,6
5,1.350486,0,3,119,2,1,7
5,1.765799,0,1,87,4,9,2
5,0.939775,0,2,133,4,3,5
5,1.49947,1,2,108,1,2,6
5,2.797173,0,1,3,1,9,8
5,1.370597,1,1,102,1,2,5
5,2.152993,1,1,20,1,11,8
5,4.20802,0,1,30,2,10,1
5,1.582328,0,1,140,4,3,6
5,1.723871,0,1,99,1,2,5
5,1.579842,0,2,101,1,2,6
5,1.521981,0,3,82,4,12,3
5,1.562783,1,1,111,2,1,5
5,1.80006,0,2,144,4,3,5
5,1.798112,0,3,115,2,1,7
5,3.011482,0,2,132,3,4,5
5,1.944295,0,3,4,1,10,3
5,1.942337,0,3,124,3,4,7
5,2.086767,0,3,139,4,3,7
5,3.264878,0,3,106,1,2,7
5,1.787663,0,2,137,4,3,5
5,2.00891,0,3,142,4,3,7
5,1.110042,1,1,78,4,10,2
5,1.383235,0,2,37,2,9,2
5,2.029351,0,3,118,2,1,7
5,1.369378,0,1,63,3,9,2
5,1.359896,0,2,85,4,9,1
5,1.999606,0,2,36,2,12,2
5,1.85198,0,3,130,3,4,7
5,1.239591,0,2,25,2,9,2
5,1.443779,0,3,95,4,12,3
5,1.487424,1,2,97,1,2,6
5,1.545614,1,2,110,2,1,6
5,1.977148,0,3,67,3,11,3
5,1.775632,1,1,42,2,10,8
5,1.278142,0,2,121,3,4,5
5,1.903785,0,3,71,3,12,3
5,3.584513,0,1,80,4,11,2
5,1.670966,0,3,23,1,12,3
5,2.417562,0,2,12,1,12,2
5,2.734707,0,3,59,3,12,4
5,1.566129,1,2,134,4,3,5
5,1.301188,0,3,31,2,11,3
5,1.246052,0,3,88,4,10,4
5,1.441182,0,2,5,1,10,2
5,1.236765,0,3,127,3,4,7
5,1.673083,0,1,32,2,11,1
5,1.035433,0,1,128,3,4,6
5,0.838921,0,1,8,1,11,1
5,0.811379,0,1,54,3,10,2
5,1.342971,1,2,96,4,12,8
5,3.25498,0,2,62,3,9,8
5,1.818191,0,1,68,3,11,2
5,1.150638,0,3,83,4,12,4
5,2.062223,0,1,21,1,11,1
5,1.441032,0,3,47,2,12,3
5,1.149446,0,3,46,2,12,3
5,2.140309,0,1,93,4,11,2
5,2.924354,1,2,61,3,9,1
5,1.157342,0,3,40,2,10,4
5,1.148487,0,2,65,3,10,1
5,2.159446,1,1,18,1,10,8
5,1.877602,0,2,49,3,9,8
5,2.5688,1,1,104,1,2,5
5,2.407513,1,1,6,1,10,1
5,2.588195,0,3,16,1,10,4
5,1.211204,0,3,91,4,11,3
5,2.19195,0,1,66,3,10,2
5,2.125732,0,1,129,3,4,6
5,1.493823,0,3,100,1,2,7
5,1.736122,0,1,126,3,4,6
5,3.560066,1,2,120,2,1,6
5,1.270269,1,2,50,3,9,1
5,0.945444,0,3,76,4,10,3
5,2.168217,0,2,24,1,12,2
5,1.623196,0,1,141,4,3,6
5,1.835367,0,3,79,4,11,4
5,2.199932,0,1,92,4,11,2
5,1.380671,0,2,14,1,9,2
5,2.010691,1,1,39,2,9,1
5,1.359244,1,1,57,3,11,2
5,1.686414,1,1,15,1,9,1
5,1.144918,0,3,131,3,4,7
5,3.639755,1,1,123,3,4,6
5,2.043753,1,2,73,4,9,8
5,0.75198,0,2,125,3,4,5
5,1.638496,0,1,81,4,11,2
5,0.730565,0,1,9,1,11,8
5,1.090071,1,2,72,3,12,8
5,1.56461,0,3,19,1,11,4
5,0.850753,1,3,35,2,12,4
5,0.998142,0,3,143,4,3,7
5,0.907132,1,1,90,4,10,2
5,2.116517,0,3,34,2,12,4
5,2.293378,0,1,27,2,9,8
5,1.599202,1,2,41,2,10,2
5,2.612444,0,1,33,2,11,8
5,1.17772,0,3,55,3,11,4
5,1.968726,0,1,32,2,11,1
5,0.982503,1,2,120,2,1,6
5,1.221102,0,3,88,4,10,4
5,1.049599,1,2,13,1,9,2
5,1.492892,0,1,126,3,4,6
5,1.286623,1,1,45,2,11,1
5,1.425162,0,2,85,4,9,1
5,1.133546,0,2,97,1,2,6
5,1.429053,0,1,75,4,9,2
5,1.297563,0,1,69,3,11,2
5,1.721862,0,3,64,3,10,4
5,1.163449,0,2,98,1,2,6
5,1.449074,1,1,18,1,10,8
5,1.157324,0,2,89,4,10,1
5,1.276664,1,1,44,2,11,8
5,1.150876,1,1,39,2,9,1
5,2.670547,0,2,38,2,9,2
5,1.120642,0,3,31,2,11,3
5,0.969505,1,2,41,2,10,2
5,2.728613,0,1,9,1,11,8
5,1.144179,0,1,33,2,11,8
5,1.120314,0,2,125,3,4,5
5,1.640284,0,3,124,3,4,7
5,1.988069,0,3,142,4,3,7
5,2.59436,0,3,40,2,10,4
5,1.207966,0,3,95,4,12,3
5,1.077129,0,3,28,2,10,3
5,1.151399,0,3,71,3,12,3
5,0.959213,0,2,84,4,12,1
5,1.470437,0,3,100,1,2,7
5,0.785109,0,3,112,2,1,7
5,1.158707,1,2,96,4,12,8
5,1.06974,0,3,23,1,12,3
5,0.856074,0,3,67,3,11,3
5,2.012214,0,1,78,4,10,2
5,1.232902,0,3,106,1,2,7
5,2.165055,0,1,3,1,9,8
5,0.794973,0,1,128,3,4,6
5,2.652808,0,2,25,2,9,2
5,1.775916,0,3,11,1,12,4
5,1.262456,0,3,59,3,12,4
5,1.93668,0,1,68,3,11,2
5,1.560757,0,2,113,2,1,6
5,1.190674,0,3,16,1,10,4
5,0.981145,0,2,132,3,4,5
5,1.579502,0,3,4,1,10,3
5,1.313485,0,3,139,4,3,7
5,1.345373,0,1,42,2,10,8
5,1.144666,1,2,86,4,9,8
5,2.024436,0,2,14,1,9,2
5,1.412424,1,2,1,1,9,2
5,1.529651,0,1,102,1,2,5
5,1.153999,0,1,138,4,3,6
5,0.912353,0,3,47,2,12,3
5,1.337751,1,1,57,3,11,2
5,1.161214,0,3,22,1,12,3
5,1.111441,0,3,82,4,12,3
5,1.641204,0,2,122,3,4,5
5,1.020413,0,2,133,4,3,5
5,1.209251,0,1,8,1,11,1
5,1.102279,0,1,87,4,9,2
5,0.991975,0,1,51,3,9,2
5,0.949247,0,2,26,2,9,2
5,0.988986,0,2,49,3,9,8
5,1.68327,0,1,15,1,9,1
5,0.933312,0,1,81,4,11,2
5,0.949132,0,2,2,1,9,2
5,0.819559,0,2,108,1,2,6
5,1.256735,1,1,66,3,10,2
5,2.011864,0,1,27,2,9,8
5,0.785269,0,2,74,4,9,1
5,1.710867,0,1,116,2,1,5
5,1.335764,0,3,43,2,11,4
5,1.112252,0,3,35,2,12,4
5,1.368484,0,2,53,3,10,8
5,1.10339,0,2,121,3,4,5
5,0.616337,0,2,36,2,12,2
5,1.461242,0,2,73,4,9,8
5,1.447879,1,2,17,1,10,2
5,1.250557,0,1,135,4,3,6
5,1.190124,0,1,117,2,1,5
5,1.059721,0,3,103,1,2,7
5,1.554883,0,3,131,3,4,7
5,1.034657,0,2,110,2,1,6
5,1.135187,0,3,91,4,11,3
5,1.326946,0,1,21,1,11,1
5,1.719139,1,1,114,2,1,5
5,2.191679,0,1,92,4,11,2
5,1.109753,0,1,30,2,10,1
5,1.654849,0,1,111,2,1,5
5,1.025778,0,2,109,2,1,6
5,2.166365,1,1,54,3,10,2
5,2.237487,0,2,65,3,10,1
5,1.161368,1,1,140,4,3,6
5,1.264427,0,2,29,2,10,2
5,0.962444,0,3,136,4,3,7
5,1.360973,0,1,105,1,2,5
5,0.912019,0,2,60,3,12,1
5,1.281372,0,3,10,1,12,4
5,1.715296,0,1,93,4,11,2
5,0.907755,0,3,115,2,1,7
5,1.189103,0,3,119,2,1,7
5,0.827516,0,2,50,3,9,1
5,1.774813,0,3,130,3,4,7
5,1.069353,1,2,134,4,3,5
5,1.544091,0,3,83,4,12,4
5,0.815296,1,1,20,1,11,8
5,1.059829,0,3,143,4,3,7
5,1.686248,0,2,101,1,2,6
5,0.872572,0,2,48,2,12,2
5,1.80353,0,1,104,1,2,5
5,1.760436,0,2,5,1,10,2
5,1.112036,0,3,7,1,11,3
5,1.824363,1,1,90,4,10,2
5,1.741006,0,2,144,4,3,5
5,0.788602,0,2,12,1,12,2
5,1.3474,0,3,58,3,12,3
5,1.201867,0,2,61,3,9,1
5,0.998887,0,2,37,2,9,2
5,1.484453,0,3,79,4,11,4
5,1.367087,0,3,55,3,11,4
5,2.429263,0,2,137,4,3,5
5,1.160649,0,3,70,3,12,4
5,1.399283,0,2,77,4,10,8
5,2.357546,1,1,99,1,2,5
5,0.788635,0,2,24,1,12,2
5,0.826737,0,1,123,3,4,6
5,1.295456,0,3,46,2,12,3
5,1.200742,0,3,107,1,2,7
5,1.269629,1,1,63,3,9,2
5,2.191868,1,1,141,4,3,6
5,1.64697,0,3,118,2,1,7
5,1.593194,0,3,52,3,10,3
5,1.167683,0,2,72,3,12,8
5,1.526215,0,1,80,4,11,2
5,1.046319,0,2,62,3,9,8
5,1.185805,0,3,127,3,4,7
5,0.999903,1,1,56,3,11,2
5,1.068412,1,1,129,3,4,6
5,0.734993,0,3,76,4,10,3
5,1.103791,0,3,34,2,12,4
5,0.593327,0,3,94,4,12,4
5,1.318945,0,3,19,1,11,4
5,0.576058,1,1,6,1,10,1
6,1.275866,0,2,87,4,9,8
6,1.744339,1,2,92,4,11,1
6,1.378659,0,3,136,4,3,7
6,1.218953,0,3,46,2,12,4
6,1.70644,0,2,135,4,3,5
6,1.382363,0,3,100,1,2,7
6,1.590762,1,2,8,1,11,2
6,1.822576,1,2,117,2,1,6
6,1.812054,0,2,128,3,4,5
6,1.21862,1,1,134,4,3,6
6,1.417748,0,2,71,3,12,8
6,1.336586,0,1,125,3,4,6
6,1.115605,0,1,48,2,12,1
6,1.487823,1,1,98,1,2,5
6,1.116208,0,3,54,3,10,3
6,1.152753,1,2,44,2,11,2
6,1.673896,0,3,67,3,11,3
6,1.342842,1,1,61,3,9,2
6,1.568166,0,2,3,1,9,2
6,1.561387,1,3,88,4,10,4
6,1.123128,0,3,124,3,4,7
6,1.270936,0,1,120,2,1,5
6,1.044242,0,1,84,4,12,2
6,1.849869,0,1,2,1,9,1
6,1.367766,0,3,6,1,10,3
6,1.416856,0,3,7,1,11,4
6,1.536276,0,1,109,2,1,5
6,1.362447,0,3,18,1,10,4
6,1.628168,0,2,47,2,12,2
6,1.097318,1,1,86,4,9,2
6,1.798953,0,1,113,2,1,5
6,1.181486,0,3,79,4,11,4
6,1.654694,0,1,65,3,10,2
6,1.044034,0,1,73,4,9,2
6,1.242133,0,1,97,1,2,5
6,1.473629,1,2,80,4,11,8
6,1.310561,0,3,126,3,4,7
6,1.409936,0,2,39,2,9,2
6,1.057447,0,1,41,2,10,1
6,1.751131,0,2,33,2,11,2
6,1.159286,0,1,53,3,10,2
6,2.106287,0,2,83,4,12,1
6,1.315545,1,2,105,1,2,6
6,1.095421,0,2,11,1,12,2
6,0.74763,0,2,111,2,1,6
6,1.022009,1,2,45,2,11,2
6,1.573227,1,3,28,2,10,4
6,0.862884,0,1,137,4,3,6
6,1.083773,0,3,90,4,10,4
6,1.561261,0,1,121,3,4,6
6,1.027153,0,3,112,2,1,7
6,1.426588,0,1,1,1,9,1
6,1.273041,1,2,116,2,1,6
6,1.277594,0,2,131,3,4,5
6,1.371704,0,1,38,2,9,8
6,1.363908,0,3,76,4,10,3
6,1.269103,0,3,139,4,3,7
6,1.186492,0,3,91,4,11,3
6,1.32494,0,1,14,1,9,8
6,1.615007,1,2,104,1,2,6
6,1.334218,0,2,59,3,12,1
6,1.232602,1,3,78,4,10,3
6,1.422343,1,2,57,3,11,8
6,1.4295,0,1,29,2,10,8
6,1.284728,0,3,19,1,11,3
6,1.40191,0,1,101,1,2,5
6,1.721686,1,2,15,1,9,2
6,1.132234,0,3,34,2,12,3
6,1.007481,1,2,129,3,4,5
6,1.688046,1,1,96,4,12,2
6,1.171929,0,1,50,3,9,2
6,1.4848,1,3,40,2,10,3
6,0.914013,0,1,72,3,12,2
6,1.102336,0,3,58,3,12,4
6,1.115026,0,3,118,2,1,7
6,1.023211,0,3,22,1,12,4
6,2.15113,0,1,12,1,12,8
6,1.599218,1,1,37,2,9,8
6,1.334018,0,3,82,4,12,4
6,1.177155,0,1,132,3,4,6
6,1.425621,0,3,31,2,11,4
6,1.152474,1,2,95,4,12,8
6,0.979632,0,3,55,3,11,4
6,1.164481,0,1,49,3,9,2
6,1.456214,0,1,62,3,9,2
6,1.269079,0,2,81,4,11,8
6,1.48243,1,2,75,4,9,1
6,1.199242,0,1,13,1,9,8
6,1.502993,0,3,142,4,3,7
6,1.323855,0,1,85,4,9,2
6,1.175803,0,3,138,4,3,7
6,0.991288,0,1,89,4,10,2
6,1.249259,0,2,51,3,9,1
6,1.055043,1,3,115,2,1,7
6,1.012841,0,1,24,1,12,1
6,0.950026,0,3,30,2,10,3
6,0.976265,1,1,17,1,10,1
6,0.978702,0,1,36,2,12,8
6,0.915878,0,3,42,2,10,4
6,1.280497,0,1,5,1,10,8
6,0.900728,1,2,119,2,1,6
6,1.457201,0,1,133,4,3,6
6,1.527107,0,2,143,4,3,5
6,1.193594,0,3,94,4,12,3
6,1.281614,0,1,144,4,3,6
6,1.206413,0,2,20,1,11,2
6,2.215888,1,2,107,1,2,6
6,1.371853,1,3,102,1,2,7
6,0.956891,0,3,114,2,1,7
6,1.912641,0,2,63,3,9,8
6,1.098388,0,3,103,1,2,7
6,0.806007,1,2,9,1,11,2
6,1.071572,0,2,23,1,12,2
6,1.124831,1,2,21,1,11,2
6,1.328108,0,2,32,2,11,2
6,1.379836,0,2,27,2,9,2
6,1.03641,0,3,66,3,10,4
6,1.268456,0,1,108,1,2,5
6,1.120617,0,3,10,1,12,3
6,1.467567,1,1,25,2,9,1
6,1.13651,1,2,68,3,11,1
6,1.299026,0,2,93,4,11,1
6,1.087865,1,1,110,2,1,5
6,1.28508,0,3,52,3,10,3
6,1.51317,0,1,77,4,10,2
6,1.197317,0,3,4,1,10,4
6,0.861727,1,2,69,3,11,1
6,1.626741,0,2,141,4,3,5
6,2.201572,0,2,99,1,2,6
6,1.239544,0,1,60,3,12,2
6,2.127005,1,1,74,4,9,2
6,1.039568,0,2,123,3,4,5
6,2.351411,0,3,106,1,2,7
6,1.158288,1,2,140,4,3,5
6,1.825716,0,3,130,3,4,7
6,1.343121,0,1,122,3,4,6
6,1.593469,1,2,56,3,11,8
6,1.184576,1,2,35,2,12,2
6,1.241831,0,3,64,3,10,4
6,1.600494,0,1,26,2,9,1
6,1.207583,0,3,16,1,10,3
6,1.487217,0,3,70,3,12,3
6,1.203017,0,3,43,2,11,3
6,0.963545,0,3,127,3,4,7
6,1.548839,0,2,45,2,11,2
6,0.918558,0,2,105,1,2,6
6,1.48998,1,2,99,1,2,6
6,1.261015,0,2,27,2,9,2
6,1.283446,0,2,68,3,11,1
6,1.896096,1,1,62,3,9,2
6,1.594198,1,1,137,4,3,6
6,1.017613,0,2,111,2,1,6
6,1.473878,0,3,79,4,11,4
6,2.111311,0,3,91,4,11,3
6,1.265121,0,1,73,4,9,2
6,0.909237,0,1,121,3,4,6
6,1.059251,0,1,36,2,12,8
6,1.217375,0,3,124,3,4,7
6,2.120344,0,3,30,2,10,3
6,0.913339,0,1,122,3,4,6
6,1.363879,1,2,80,4,11,8
6,1.589557,0,2,69,3,11,1
6,1.485382,0,3,118,2,1,7
6,1.346379,0,1,108,1,2,5
6,1.012122,0,3,28,2,10,4
6,1.052285,0,2,63,3,9,8
6,0.986363,0,2,143,4,3,5
6,0.627511,0,2,135,4,3,5
6,1.235848,0,2,92,4,11,1
6,1.114364,0,2,59,3,12,1
6,1.245394,1,2,9,1,11,2
6,1.771049,1,1,14,1,9,8
6,1.37202,0,3,82,4,12,4
6,1.684436,0,1,134,4,3,6
6,1.265026,0,2,123,3,4,5
6,1.813468,0,1,86,4,9,2
6,1.221476,0,1,5,1,10,8
6,1.284105,0,1,74,4,9,2
6,1.207604,0,3,127,3,4,7
6,1.152742,0,1,77,4,10,2
6,1.235083,0,3,31,2,11,4
6,1.697111,1,2,116,2,1,6
6,1.253259,0,2,32,2,11,2
6,1.066774,0,3,22,1,12,4
6,1.721644,1,2,15,1,9,2
6,1.33818,0,3,94,4,12,3
6,1.325708,0,2,51,3,9,1
6,1.224647,0,3,106,1,2,7
6,1.567943,0,3,139,4,3,7
6,1.657048,0,2,128,3,4,5
6,1.356724,0,1,49,3,9,2
6,1.102666,0,2,23,1,12,2
6,1.20325,0,3,55,3,11,4
6,0.939436,0,3,58,3,12,4
6,1.15058,0,3,90,4,10,4
6,1.208885,0,2,119,2,1,6
6,1.185758,0,1,12,1,12,8
6,1.946868,0,2,35,2,12,2
6,1.076498,0,1,89,4,10,2
6,1.111222,0,3,4,1,10,4
6,1.084533,0,1,24,1,12,1
6,1.016998,0,3,70,3,12,3
6,1.160407,0,1,113,2,1,5
6,0.88257,0,2,95,4,12,8
6,1.19194,0,3,103,1,2,7
6,1.240578,0,1,72,3,12,2
6,1.518974,0,2,57,3,11,8
6,0.770617,0,1,96,4,12,2
6,1.396661,0,3,43,2,11,3
6,1.340551,0,1,37,2,9,8
6,1.463228,0,1,85,4,9,2
6,1.29136,0,3,78,4,10,3
6,1.03366,0,3,115,2,1,7
6,1.248579,0,3,136,4,3,7
6,1.253164,0,1,1,1,9,1
6,1.292373,0,1,61,3,9,2
6,1.247883,0,2,3,1,9,2
6,1.302961,1,2,117,2,1,6
6,1.025813,0,3,100,1,2,7
6,1.202172,0,1,29,2,10,8
6,0.985889,0,1,38,2,9,8
6,1.098676,0,2,56,3,11,8
6,0.911946,0,3,126,3,4,7
6,1.16371,0,2,83,4,12,1
6,1.09354,0,1,144,4,3,6
6,1.138378,0,1,41,2,10,1
6,0.973329,0,1,65,3,10,2
6,1.126777,0,2,44,2,11,2
6,0.963687,1,1,98,1,2,5
6,1.363639,0,3,6,1,10,3
6,0.878412,0,1,25,2,9,1
6,1.51549,0,3,18,1,10,4
6,1.239277,0,1,13,1,9,8
6,1.469386,0,1,101,1,2,5
6,1.362786,0,2,47,2,12,2
6,1.115756,0,3,40,2,10,3
6,0.799145,0,3,7,1,11,4
6,1.119127,0,2,104,1,2,6
6,1.019082,0,3,112,2,1,7
6,1.043458,0,3,142,4,3,7
6,0.930966,0,3,46,2,12,4
6,1.132867,0,2,39,2,9,2
6,0.768539,0,2,131,3,4,5
6,1.115288,0,2,33,2,11,2
6,1.462627,1,3,34,2,12,3
6,1.300937,0,1,120,2,1,5
6,0.673333,0,1,60,3,12,2
6,0.97456,0,3,52,3,10,3
6,1.040743,0,1,125,3,4,6
6,1.487811,0,3,138,4,3,7
6,1.532104,0,1,50,3,9,2
6,1.286608,0,3,42,2,10,4
6,1.906851,1,2,129,3,4,5
6,1.348554,0,2,93,4,11,1
6,0.88006,0,2,11,1,12,2
6,1.308468,0,1,48,2,12,1
6,2.048312,1,2,140,4,3,5
6,1.268502,0,1,133,4,3,6
6,1.226136,0,2,21,1,11,2
6,0.785528,0,1,2,1,9,1
6,1.338424,0,2,8,1,11,2
6,1.101395,0,3,64,3,10,4
6,1.360909,0,3,76,4,10,3
6,0.994615,0,3,67,3,11,3
6,1.045128,0,1,109,2,1,5
6,1.138368,0,2,71,3,12,8
6,1.019645,0,3,114,2,1,7
6,0.940809,0,1,110,2,1,5
6,1.120622,0,1,84,4,12,2
6,1.218295,0,3,54,3,10,3
6,1.162771,0,2,141,4,3,5
6,1.819955,0,2,20,1,11,2
6,1.274189,0,3,130,3,4,7
6,1.159753,0,3,19,1,11,3
6,1.18518,0,3,10,1,12,3
6,0.769392,1,2,87,4,9,8
6,0.852826,0,2,75,4,9,1
6,1.155612,0,1,26,2,9,1
6,0.92376,1,1,53,3,10,2
6,1.575948,1,3,66,3,10,4
6,0.960013,1,2,81,4,11,8
6,1.546815,1,1,97,1,2,5
6,0.997011,0,3,16,1,10,3
6,0.940327,0,3,88,4,10,4
6,0.799413,1,1,17,1,10,1
6,0.752717,0,1,132,3,4,6
6,1.307959,0,3,102,1,2,7
6,1.136934,0,2,107,1,2,6
7,1.828377,0,3,27,2,9,3
7,1.672424,0,1,95,4,12,2
7,1.386965,0,3,123,3,4,7
7,1.936623,0,2,57,3,11,1
7,0.64855,0,2,61,3,9,8
7,1.235984,0,2,14,1,9,2
7,1.303565,1,2,1,1,9,2
7,1.201334,0,1,6,1,10,8
7,0.773911,0,2,69,3,11,8
7,0.924781,1,1,53,3,10,2
7,1.365236,1,1,137,4,3,6
7,1.260206,1,1,101,1,2,5
7,1.775401,0,1,119,2,1,5
7,1.149853,0,2,44,2,11,2
7,1.061135,0,1,83,4,12,2
7,1.159703,1,2,73,4,9,1
7,1.838702,1,3,144,4,3,7
7,1.93145,0,2,81,4,11,1
7,1.33933,0,2,2,1,9,2
7,0.786963,0,2,80,4,11,8
7,0.704509,0,2,68,3,11,1
7,1.074434,1,1,66,3,10,2
7,1.628483,1,3,55,3,11,4
7,1.424789,1,2,33,2,11,2
7,1.229646,0,3,63,3,9,4
7,1.40942,1,1,90,4,10,2
7,1.214759,0,3,106,1,2,7
7,1.54747,0,1,126,3,4,6
7,1.242695,1,1,65,3,10,2
7,0.974601,0,3,79,4,11,4
7,1.028955,0,3,60,3,12,4
7,1.056463,1,1,100,1,2,5
7,1.0763,1,2,9,1,11,2
7,2.438994,0,2,97,1,2,6
7,1.018793,0,1,64,3,10,2
7,0.831214,0,2,21,1,11,2
7,1.06744,0,3,115,2,1,7
7,1.022223,0,3,82,4,12,3
7,0.898488,0,3,15,1,9,4
7,1.675502,0,2,104,1,2,6
7,1.533955,0,3,3,1,9,3
7,1.598819,0,1,77,4,10,2
7,1.124251,0,3,94,4,12,4
7,1.259858,0,2,117,2,1,6
7,1.647617,0,1,40,2,10,8
7,1.465838,0,1,138,4,3,6
7,0.773543,0,2,133,4,3,5
7,1.459108,1,2,20,1,11,2
7,1.263281,1,2,140,4,3,5
7,1.257846,0,3,70,3,12,4
7,1.652531,1,2,45,2,11,2
7,1.296568,1,1,78,4,10,2
7,1.17701,0,3,135,4,3,7
7,2.13527,1,3,58,3,12,3
7,1.175179,1,1,76,4,10,2
7,1.798001,0,1,41,2,10,8
7,0.922517,0,1,136,4,3,6
7,0.859708,0,1,4,1,10,1
7,1.199292,0,3,118,2,1,7
7,1.324669,0,1,88,4,10,2
7,1.557407,1,2,74,4,9,8
7,1.636743,0,2,105,1,2,6
7,1.208491,0,3,12,1,12,4
7,3.028911,0,2,26,2,9,2
7,1.177954,0,3,139,4,3,7
7,1.287831,0,3,132,3,4,7
7,1.06593,0,3,48,2,12,3
7,1.284769,0,1,102,1,2,5
7,1.263016,1,1,89,4,10,2
7,1.217417,1,1,30,2,10,8
7,1.27746,1,1,124,3,4,6
7,0.920552,0,2,13,1,9,2
7,1.257337,1,2,98,1,2,6
7,1.412617,0,1,47,2,12,1
7,1.537019,1,1,17,1,10,8
7,3.128866,0,1,18,1,10,1
7,1.913242,0,3,43,2,11,4
7,1.409918,0,3,91,4,11,3
7,1.215055,0,3,7,1,11,3
7,1.555818,0,3,39,2,9,4
7,1.259002,0,2,49,3,9,1
7,1.205911,0,2,62,3,9,1
7,1.411212,0,1,52,3,10,2
7,2.767739,1,3,84,4,12,4
7,0.846107,0,1,131,3,4,6
7,1.35401,0,1,114,2,1,5
7,1.032583,0,3,120,2,1,7
7,1.301357,1,1,125,3,4,6
7,1.526527,0,2,121,3,4,5
7,1.65408,0,1,11,1,12,8
7,1.161467,0,3,87,4,9,4
7,1.609117,0,3,99,1,2,7
7,1.285966,1,1,29,2,10,1
7,1.359914,0,1,107,1,2,5
7,0.887369,0,1,143,4,3,6
7,2.624986,1,2,25,2,9,2
7,1.189462,0,3,111,2,1,7
7,1.419849,0,2,85,4,9,8
7,1.928185,1,1,113,2,1,5
7,1.265347,0,3,96,4,12,3
7,1.851583,0,1,35,2,12,8
7,1.719327,0,3,130,3,4,7
7,1.335149,0,1,28,2,10,1
7,1.998973,1,3,108,1,2,7
7,1.08501,0,2,109,2,1,6
7,1.141858,0,2,8,1,11,2
7,2.158508,0,1,42,2,10,1
7,0.933065,0,2,32,2,11,2
7,1.925802,0,3,36,2,12,4
7,2.189911,1,3,19,1,11,4
7,1.164717,0,1,112,2,1,5
7,1.410761,0,3,22,1,12,3
7,1.384165,0,1,54,3,10,2
7,1.621838,1,3,142,4,3,7
7,0.930496,0,2,37,2,9,2
7,1.426085,0,3,10,1,12,4
7,1.44733,0,3,72,3,12,3
7,0.994211,0,2,134,4,3,5
7,2.192742,0,3,103,1,2,7
7,2.814451,1,1,59,3,12,2
7,0.946897,0,2,141,4,3,5
7,1.098531,0,3,46,2,12,3
7,0.930828,0,2,93,4,11,8
7,1.427111,0,3,67,3,11,3
7,1.01549,0,2,86,4,9,1
7,1.97946,1,3,75,4,9,3
7,1.074441,0,2,110,2,1,6
7,2.348311,0,2,129,3,4,5
7,0.996441,0,2,128,3,4,5
7,1.017812,0,2,38,2,9,2
7,1.557965,0,3,31,2,11,3
7,2.740734,1,1,71,3,12,2
7,1.165421,0,2,122,3,4,5
7,2.083179,1,2,116,2,1,6
7,1.397987,0,3,127,3,4,7
7,1.442754,1,1,5,1,10,1
7,1.311308,0,1,16,1,10,8
7,1.463683,0,3,51,3,9,3
7,1.178289,0,2,92,4,11,1
7,2.400201,0,2,50,3,9,8
7,1.54183,0,3,24,1,12,3
7,0.997372,0,2,56,3,11,8
7,1.275024,0,3,34,2,12,4
7,1.693628,0,1,23,1,12,1
7,1.215634,0,2,133,4,3,5
7,1.0597,0,3,144,4,3,7
7,1.278877,0,3,34,2,12,4
7,1.3455,0,3,27,2,9,3
7,1.193748,0,2,128,3,4,5
7,0.718929,0,2,92,4,11,1
7,1.376534,0,1,88,4,10,2
7,1.438596,0,1,126,3,4,6
7,1.314697,0,2,110,2,1,6
7,0.84366,0,2,38,2,9,2
7,1.375396,0,1,28,2,10,1
7,1.429966,1,1,30,2,10,8
7,1.745793,1,3,120,2,1,7
7,0.961401,0,2,21,1,11,2
7,0.808074,0,2,57,3,11,1
7,1.157524,0,3,31,2,11,3
7,1.660306,0,3,111,2,1,7
7,0.791775,0,2,129,3,4,5
7,2.165875,0,3,19,1,11,4
7,0.876056,0,2,37,2,9,2
7,0.966692,0,1,113,2,1,5
7,1.100916,0,2,32,2,11,2
7,1.374477,1,3,48,2,12,3
7,0.861419,0,2,86,4,9,1
7,1.264008,0,2,13,1,9,2
7,1.143837,0,1,102,1,2,5
7,0.855448,0,1,42,2,10,1
7,1.675209,0,3,70,3,12,4
7,1.166052,1,1,29,2,10,1
7,1.140732,0,2,50,3,9,8
7,1.548537,0,3,127,3,4,7
7,2.635901,0,1,54,3,10,2
7,0.887573,0,1,35,2,12,8
7,0.713502,0,2,9,1,11,2
7,1.04257,0,3,10,1,12,4
7,1.309652,0,2,45,2,11,2
7,1.551857,1,3,55,3,11,4
7,1.078593,0,2,2,1,9,2
7,0.82452,0,2,26,2,9,2
7,1.374068,1,1,6,1,10,8
7,0.948442,0,2,117,2,1,6
7,0.939894,0,1,131,3,4,6
7,1.140048,0,3,67,3,11,3
7,2.475631,1,1,41,2,10,8
7,1.038384,0,1,100,1,2,5
7,1.609522,0,2,74,4,9,8
7,1.326883,0,3,75,4,9,3
7,0.997529,0,3,7,1,11,3
7,1.315003,0,1,11,1,12,8
7,1.603927,0,3,99,1,2,7
7,0.9848,0,2,56,3,11,8
7,1.391173,0,1,112,2,1,5
7,1.677601,0,3,91,4,11,3
7,1.663432,0,3,96,4,12,3
7,1.329473,0,3,39,2,9,4
7,1.304882,1,3,115,2,1,7
7,1.042236,0,1,114,2,1,5
7,0.831207,0,2,116,2,1,6
7,0.730659,0,2,104,1,2,6
7,1.450348,0,3,118,2,1,7
7,1.805814,0,3,132,3,4,7
7,1.428164,1,3,142,4,3,7
7,1.350654,1,3,36,2,12,4
7,1.390603,0,3,94,4,12,4
7,1.228811,0,2,25,2,9,2
7,1.408521,0,1,90,4,10,2
7,1.262257,0,1,101,1,2,5
7,1.008006,0,1,59,3,12,2
7,1.124929,0,3,72,3,12,3
7,1.174054,0,1,83,4,12,2
7,1.444916,0,2,1,1,9,2
7,1.296267,0,3,3,1,9,3
7,1.176284,0,2,98,1,2,6
7,1.470564,0,1,47,2,12,1
7,1.537041,1,2,122,3,4,5
7,1.51328,0,3,22,1,12,3
7,1.498196,1,3,84,4,12,4
7,1.371042,0,1,138,4,3,6
7,1.562318,0,1,107,1,2,5
7,1.280411,0,2,93,4,11,8
7,0.810448,0,2,69,3,11,8
7,1.238945,0,2,140,4,3,5
7,1.051392,0,2,105,1,2,6
7,1.142163,0,1,40,2,10,8
7,1.270646,0,1,53,3,10,2
7,1.249293,0,1,77,4,10,2
7,1.435464,0,1,119,2,1,5
7,1.368473,1,1,143,4,3,6
7,1.74271,0,3,24,1,12,3
7,1.846481,1,2,81,4,11,1
7,1.392352,0,2,80,4,11,8
7,1.190988,0,1,17,1,10,8
7,1.188821,0,2,97,1,2,6
7,1.090748,0,1,124,3,4,6
7,0.844574,0,2,85,4,9,8
7,0.704597,0,2,33,2,11,2
7,1.313935,0,1,23,1,12,1
7,1.322254,0,2,20,1,11,2
7,0.906,0,1,89,4,10,2
7,0.994209,0,2,8,1,11,2
7,1.175868,0,3,60,3,12,4
7,1.463187,0,3,108,1,2,7
7,1.280966,0,2,109,2,1,6
7,1.018997,0,2,14,1,9,2
7,0.951778,0,2,49,3,9,1
7,1.342576,0,2,134,4,3,5
7,0.814523,0,2,68,3,11,1
7,1.258751,1,1,125,3,4,6
7,1.334169,0,3,103,1,2,7
7,1.268988,0,3,79,4,11,4
7,1.344463,0,3,15,1,9,4
7,1.399196,0,3,63,3,9,4
7,1.27678,0,1,52,3,10,2
7,1.199721,0,2,73,4,9,1
7,1.141117,0,1,136,4,3,6
7,0.820701,0,1,76,4,10,2
7,1.385057,0,1,66,3,10,2
7,1.119044,0,3,139,4,3,7
7,1.12783,0,3,130,3,4,7
7,1.367304,0,3,12,1,12,4
7,1.262357,0,1,64,3,10,2
7,1.009437,1,3,87,4,9,4
7,1.150456,1,3,46,2,12,3
7,0.828938,0,2,121,3,4,5
7,1.273975,0,3,58,3,12,3
7,1.211476,0,3,82,4,12,3
7,1.153783,0,1,71,3,12,2
7,0.984621,0,1,95,4,12,2
7,1.398476,0,1,137,4,3,6
7,1.268014,0,1,16,1,10,8
7,1.125823,0,1,4,1,10,1
7,1.014607,0,1,5,1,10,1
7,0.89909,0,1,65,3,10,2
7,1.340916,1,1,18,1,10,1
7,1.140196,0,3,135,4,3,7
7,1.204229,0,2,61,3,9,8
7,1.241907,0,3,51,3,9,3
7,1.125901,0,3,106,1,2,7
7,1.070236,0,3,43,2,11,4
7,1.784189,1,1,78,4,10,2
7,1.166071,0,3,123,3,4,7
7,1.197148,1,2,141,4,3,5
7,0.966024,0,2,44,2,11,2
7,0.764459,0,2,62,3,9,1
8,1.308372,1,3,101,1,2,7
8,2.487408,0,1,48,2,12,8
8,1.329454,0,1,107,1,2,5
8,1.412677,1,2,57,3,11,1
8,1.395486,0,1,108,1,2,5
8,1.364177,0,2,16,1,10,2
8,1.660879,0,3,121,3,4,7
8,1.482905,0,1,86,4,9,2
8,2.094169,0,3,67,3,11,3
8,1.384741,0,2,88,4,10,1
8,1.865636,0,2,105,1,2,6
8,1.24607,0,1,119,2,1,5
8,1.170289,0,2,6,1,10,2
8,1.236356,1,3,29,2,10,3
8,1.380619,1,3,133,4,3,7
8,1.372345,1,2,8,1,11,2
8,1.525312,0,3,49,3,9,4
8,1.664811,0,3,73,4,9,4
8,1.30147,0,1,142,4,3,6
8,1.152155,0,3,77,4,10,3
8,1.770965,0,3,87,4,9,4
8,0.972604,1,2,33,2,11,2
8,1.333622,0,3,111,2,1,7
8,1.096587,0,1,59,3,12,2
8,1.588139,0,1,134,4,3,6
8,1.253567,0,3,27,2,9,4
8,1.30672,0,1,14,1,9,1
8,1.046721,0,1,122,3,4,6
8,1.221343,1,2,32,2,11,2
8,1.348276,0,1,98,1,2,5
8,1.198599,1,3,53,3,10,3
8,2.167648,1,2,54,3,10,8
8,1.23145,0,2,141,4,3,5
8,1.140644,1,1,132,3,4,6
8,1.039956,0,1,50,3,9,2
8,1.479451,0,2,56,3,11,1
8,1.188944,0,2,128,3,4,5
8,1.419561,1,2,76,4,10,8
8,1.195655,0,1,47,2,12,8
8,1.251907,0,1,74,4,9,2
8,1.185173,0,1,131,3,4,6
8,1.347041,0,3,51,3,9,3
8,1.188882,0,3,39,2,9,3
8,0.981551,0,1,110,2,1,5
8,0.733999,0,2,68,3,11,8
8,1.274912,0,3,137,4,3,7
8,1.48005,0,3,65,3,10,4
8,1.284197,0,2,80,4,11,1
8,1.127671,0,3,19,1,11,4
8,1.106796,0,1,95,4,12,2
8,1.191144,0,3,61,3,9,3
8,1.367753,0,2,116,2,1,6
8,1.306078,0,2,112,2,1,6
8,1.1656,0,2,52,3,10,8
8,1.031583,0,2,44,2,11,2
8,0.903174,0,2,45,2,11,2
8,1.186744,0,3,135,4,3,7
8,1.156165,0,3,91,4,11,3
8,0.86314,0,3,139,4,3,7
8,1.260908,0,2,42,2,10,2
8,1.410181,0,3,1,1,9,4
8,1.290255,0,1,36,2,12,1
8,0.814423,0,1,72,3,12,2
8,1.125838,1,2,30,2,10,2
8,1.233592,0,2,21,1,11,2
8,1.249097,1,1,46,2,12,1
8,1.21498,0,3,89,4,10,4
8,0.998621,0,2,117,2,1,6
8,1.006729,0,1,35,2,12,1
8,0.672257,0,1,84,4,12,2
8,0.605124,0,1,120,2,1,5
8,1.093918,0,3,103,1,2,7
8,0.835094,0,1,144,4,3,6
8,1.115264,0,3,17,1,10,4
8,1.159087,0,2,136,4,3,5
8,1.618045,0,3,125,3,4,7
8,0.920351,0,3,115,2,1,7
8,0.900882,0,3,63,3,9,4
8,1.049961,0,3,123,3,4,7
8,1.111736,0,1,22,1,12,1
8,0.883046,1,2,102,1,2,6
8,1.353243,0,1,130,3,4,6
8,1.195517,0,3,13,1,9,3
8,1.3882,1,2,126,3,4,5
8,0.845038,0,1,83,4,12,2
8,1.148213,0,2,69,3,11,8
8,1.054504,0,3,31,2,11,3
8,1.189016,0,2,100,1,2,6
8,0.90956,0,3,43,2,11,4
8,1.056598,1,1,24,1,12,8
8,1.256016,0,2,129,3,4,5
8,1.14993,0,3,55,3,11,4
8,1.311897,0,2,93,4,11,8
8,1.435216,0,3,99,1,2,7
8,1.146153,0,1,94,4,12,2
8,1.684243,1,2,4,1,10,2
8,1.224824,0,3,37,2,9,3
8,1.319909,1,1,26,2,9,8
8,1.137639,1,2,40,2,10,2
8,0.708752,1,2,66,3,10,1
8,0.63409,0,3,25,2,9,4
8,1.418008,0,3,97,1,2,7
8,1.09809,0,2,9,1,11,2
8,1.092937,1,1,34,2,12,8
8,1.011337,0,3,79,4,11,4
8,0.987028,0,3,127,3,4,7
8,1.035389,1,1,10,1,12,8
8,1.07459,1,2,64,3,10,1
8,1.744492,1,2,138,4,3,5
8,1.402194,0,2,20,1,11,2
8,1.090922,1,1,62,3,9,2
8,0.967715,0,1,143,4,3,6
8,1.121568,0,2,92,4,11,8
8,0.965101,0,1,96,4,12,2
8,0.735915,0,1,11,1,12,1
8,0.971427,0,2,114,2,1,6
8,1.397986,1,1,2,1,9,8
8,1.38091,1,1,58,3,12,2
8,1.326571,1,1,60,3,12,2
8,1.200948,1,1,82,4,12,2
8,1.562192,1,3,7,1,11,3
8,1.066935,0,3,41,2,10,4
8,1.184809,1,1,118,2,1,5
8,1.113588,0,2,81,4,11,1
8,0.980621,0,1,71,3,12,2
8,1.02937,0,3,3,1,9,4
8,1.053348,0,3,75,4,9,3
8,1.043148,1,1,38,2,9,1
8,1.250541,1,2,104,1,2,6
8,1.152887,0,3,15,1,9,3
8,1.330759,1,1,106,1,2,5
8,1.053801,1,2,18,1,10,2
8,1.56384,0,3,85,4,9,3
8,1.308577,0,1,12,1,12,1
8,1.302807,0,3,5,1,10,3
8,0.915427,0,2,140,4,3,5
8,1.424771,1,2,124,3,4,5
8,1.110534,1,2,28,2,10,2
8,1.154391,0,2,90,4,10,1
8,0.725028,0,2,78,4,10,8
8,0.961139,0,3,113,2,1,7
8,1.035009,1,1,70,3,12,2
8,1.61828,0,1,23,1,12,8
8,1.521648,0,3,109,2,1,7
8,1.501154,0,3,1,1,9,4
8,1.433149,0,3,79,4,11,4
8,1.199456,0,3,103,1,2,7
8,1.120646,0,1,35,2,12,1
8,1.651304,0,2,28,2,10,2
8,0.969516,0,2,16,1,10,2
8,1.083877,1,2,57,3,11,1
8,0.928426,0,1,84,4,12,2
8,1.355867,0,2,44,2,11,2
8,0.949195,0,1,83,4,12,2
8,1.295408,0,3,53,3,10,3
8,1.340403,0,1,62,3,9,2
8,1.229882,1,1,72,3,12,2
8,1.323981,0,1,110,2,1,5
8,1.160304,1,3,115,2,1,7
8,1.34644,0,1,26,2,9,8
8,1.419441,1,3,75,4,9,3
8,1.499931,0,3,85,4,9,3
8,1.079207,0,2,116,2,1,6
8,1.020814,0,2,6,1,10,2
8,1.715179,0,1,24,1,12,8
8,1.149939,0,3,13,1,9,3
8,1.104342,0,2,114,2,1,6
8,1.508989,0,1,50,3,9,2
8,1.007363,0,2,81,4,11,1
8,0.727334,0,2,80,4,11,1
8,1.260303,1,3,73,4,9,4
8,1.091251,0,1,98,1,2,5
8,1.231648,0,3,109,2,1,7
8,1.437941,0,2,54,3,10,8
8,1.067958,0,2,9,1,11,2
8,1.457109,0,3,89,4,10,4
8,0.807431,0,2,33,2,11,2
8,1.311528,0,3,41,2,10,4
8,1.403351,1,2,52,3,10,8
8,1.179323,0,2,30,2,10,2
8,0.764474,0,2,68,3,11,8
8,0.798168,0,2,69,3,11,8
8,1.032003,0,1,82,4,12,2
8,0.911341,0,2,20,1,11,2
8,0.707781,0,2,45,2,11,2
8,1.280065,0,3,65,3,10,4
8,0.95726,0,1,122,3,4,6
8,1.151191,0,3,61,3,9,3
8,1.10589,0,1,22,1,12,1
8,1.413379,0,1,142,4,3,6
8,1.044698,0,3,49,3,9,4
8,0.994812,0,3,3,1,9,4
8,0.914823,0,1,130,3,4,6
8,1.127037,0,2,4,1,10,2
8,0.699054,0,2,141,4,3,5
8,0.983987,0,1,143,4,3,6
8,0.985733,0,1,14,1,9,1
8,1.402284,1,3,29,2,10,3
8,0.961719,0,1,132,3,4,6
8,1.365136,0,3,121,3,4,7
8,1.237747,1,3,67,3,11,3
8,0.835695,0,2,66,3,10,1
8,1.699608,0,1,11,1,12,1
8,1.062622,0,1,131,3,4,6
8,1.125071,0,3,55,3,11,4
8,1.688311,0,3,111,2,1,7
8,1.324858,0,2,76,4,10,8
8,1.071873,0,3,25,2,9,4
8,0.748533,0,2,21,1,11,2
8,0.86236,0,2,117,2,1,6
8,1.085015,0,3,133,4,3,7
8,1.465587,0,3,5,1,10,3
8,0.846819,0,2,128,3,4,5
8,1.134036,0,1,108,1,2,5
8,1.54461,0,3,31,2,11,3
8,1.073406,0,2,105,1,2,6
8,1.206801,0,3,77,4,10,3
8,1.174757,0,3,127,3,4,7
8,1.055772,0,3,91,4,11,3
8,0.782958,0,2,104,1,2,6
8,1.009392,1,1,2,1,9,8
8,0.985386,0,3,43,2,11,4
8,1.241196,0,2,138,4,3,5
8,1.055626,0,3,135,4,3,7
8,1.023131,1,1,46,2,12,1
8,1.390418,0,2,102,1,2,6
8,1.49481,1,1,70,3,12,2
8,1.23478,0,2,136,4,3,5
8,1.656455,1,1,34,2,12,8
8,1.262972,0,2,88,4,10,1
8,1.332478,0,2,93,4,11,8
8,1.439852,1,1,118,2,1,5
8,1.549162,1,2,124,3,4,5
8,0.910466,0,2,90,4,10,1
8,1.929988,0,3,113,2,1,7
8,1.044789,0,2,8,1,11,2
8,1.667912,1,2,100,1,2,6
8,1.223495,1,1,60,3,12,2
8,1.448339,0,3,51,3,9,3
8,1.093283,1,1,106,1,2,5
8,1.442894,0,1,120,2,1,5
8,0.792027,0,1,96,4,12,2
8,1.298464,0,3,99,1,2,7
8,1.086547,0,3,139,4,3,7
8,1.171405,0,2,140,4,3,5
8,1.203409,1,2,42,2,10,2
8,1.154961,1,1,38,2,9,1
8,1.123904,0,3,137,4,3,7
8,1.015729,0,1,95,4,12,2
8,0.832874,0,1,36,2,12,1
8,0.952093,0,2,126,3,4,5
8,1.121922,0,3,101,1,2,7
8,0.781524,0,1,47,2,12,8
8,0.991956,1,2,129,3,4,5
8,2.224621,0,1,74,4,9,2
8,1.101388,0,1,119,2,1,5
8,0.746633,0,1,59,3,12,2
8,1.140468,0,3,27,2,9,4
8,1.176232,0,3,97,1,2,7
8,0.9683,0,2,32,2,11,2
8,1.058066,0,1,23,1,12,8
8,1.08228,0,2,56,3,11,1
8,0.998963,0,2,18,1,10,2
8,1.319151,0,3,125,3,4,7
8,1.242124,1,1,94,4,12,2
8,1.080237,0,3,123,3,4,7
8,0.949874,0,1,107,1,2,5
8,1.456528,0,2,112,2,1,6
8,1.510046,0,1,86,4,9,2
8,0.673665,0,1,48,2,12,8
8,1.031742,0,3,63,3,9,4
8,1.247213,0,3,15,1,9,3
8,1.21267,1,1,10,1,12,8
8,1.5012,0,3,7,1,11,3
8,1.088466,0,3,39,2,9,3
8,1.284625,0,3,17,1,10,4
8,1.082301,0,3,37,2,9,3
8,0.950689,1,1,12,1,12,1
8,0.882993,0,1,144,4,3,6
8,1.031854,1,2,40,2,10,2
8,1.191382,1,2,64,3,10,1
8,1.134962,1,1,58,3,12,2
8,1.410698,0,3,19,1,11,4
8,1.354905,0,3,87,4,9,4
8,0.891803,0,2,92,4,11,8
8,0.856352,0,1,71,3,12,2
8,1.023634,1,1,134,4,3,6
8,1.334993,1,2,78,4,10,8
9,3.762477,0,1,112,2,1,5
9,1.160171,1,2,106,1,2,6
9,3.758651,0,2,102,1,2,6
9,1.142639,0,3,144,4,3,7
9,2.190494,1,1,4,1,10,1
9,1.948508,0,2,142,4,3,5
9,1.651049,0,3,61,3,9,4
9,1.79089,0,2,22,1,12,2
9,1.413515,0,2,110,2,1,6
9,1.122077,0,2,138,4,3,5
9,1.074074,0,2,2,1,9,2
9,1.309234,0,1,75,4,9,2
9,1.47798,0,2,118,2,1,6
9,1.680858,0,1,5,1,10,8
9,1.018884,0,2,9,1,11,2
9,1.071121,0,2,90,4,10,8
9,2.089625,0,3,59,3,12,4
9,1.379881,0,2,42,2,10,2
9,1.129641,1,1,128,3,4,6
9,1.169593,1,2,70,3,12,1
9,1.416884,0,1,125,3,4,6
9,2.356945,1,2,10,1,12,2
9,1.508676,1,2,86,4,9,1
9,2.661476,0,1,88,4,10,2
9,1.104675,0,1,92,4,11,2
9,1.209473,0,1,140,4,3,6
9,1.191163,0,3,120,2,1,7
9,1.589138,0,3,143,4,3,7
9,2.563693,0,1,28,2,10,1
9,1.185989,0,1,8,1,11,1
9,1.343039,1,2,14,1,9,2
9,1.367634,1,2,21,1,11,2
9,1.206189,1,1,135,4,3,6
9,1.211948,1,2,34,2,12,2
9,0.912963,1,1,137,4,3,6
9,1.457337,1,3,67,3,11,3
9,2.101482,0,3,49,3,9,3
9,1.717906,0,1,76,4,10,2
9,1.822778,0,1,101,1,2,5
9,1.099052,0,2,134,4,3,5
9,1.60501,0,3,115,2,1,7
9,1.857814,0,2,66,3,10,8
9,2.437608,1,2,26,2,9,2
9,2.400882,1,1,68,3,11,2
9,1.846395,0,3,119,2,1,7
9,1.209662,0,3,72,3,12,4
9,2.35083,0,2,74,4,9,8
9,1.246112,1,1,87,4,9,2
9,1.121779,0,3,97,1,2,7
9,2.017523,0,1,116,2,1,5
9,1.861905,0,3,95,4,12,3
9,0.937338,0,3,71,3,12,3
9,1.568732,0,2,6,1,10,2
9,1.191736,0,3,23,1,12,3
9,1.157746,0,1,77,4,10,2
9,0.989303,0,2,18,1,10,2
9,1.531419,0,1,64,3,10,2
9,1.70655,0,2,94,4,12,1
9,1.619675,0,3,84,4,12,3
9,3.081015,1,1,32,2,11,1
9,1.514581,0,3,131,3,4,7
9,1.24343,0,3,79,4,11,4
9,1.239759,0,3,35,2,12,4
9,1.018554,1,1,27,2,9,8
9,1.00778,0,3,37,2,9,3
9,0.98128,0,3,121,3,4,7
9,1.883681,0,1,51,3,9,2
9,1.23693,0,1,53,3,10,2
9,0.945159,0,1,39,2,9,1
9,1.761469,0,3,133,4,3,7
9,1.935295,0,1,89,4,10,2
9,1.383672,0,1,40,2,10,8
9,1.061641,0,1,15,1,9,1
9,1.152141,1,3,107,1,2,7
9,0.80062,0,2,50,3,9,8
9,1.125323,0,3,19,1,11,4
9,1.526234,0,2,98,1,2,6
9,1.470417,0,3,60,3,12,3
9,1.145222,0,2,58,3,12,8
9,1.679702,0,2,141,4,3,5
9,0.826583,0,2,81,4,11,1
9,1.247094,0,1,80,4,11,2
9,1.585584,0,3,24,1,12,4
9,1.336272,0,3,83,4,12,4
9,1.792289,0,3,127,3,4,7
9,3.165785,1,3,31,2,11,3
9,1.213313,0,1,56,3,11,2
9,0.848816,0,1,104,1,2,5
9,1.164178,0,2,38,2,9,2
9,1.915576,0,1,99,1,2,5
9,1.579635,0,2,122,3,4,5
9,1.402236,0,3,96,4,12,4
9,1.710496,0,1,63,3,9,2
9,1.816716,1,2,54,3,10,1
9,2.4775,0,3,73,4,9,3
9,1.872167,0,2,129,3,4,5
9,1.050446,0,1,65,3,10,2
9,1.389813,0,2,62,3,9,1
9,1.451224,0,2,117,2,1,6
9,1.990757,1,3,7,1,11,3
9,1.844494,0,3,91,4,11,3
9,2.160427,0,1,123,3,4,6
9,1.079867,0,2,33,2,11,2
9,1.177877,0,2,82,4,12,8
9,1.24045,0,3,108,1,2,7
9,1.404351,0,2,69,3,11,8
9,1.50559,0,1,111,2,1,5
9,1.891228,0,2,126,3,4,5
9,1.060612,0,2,30,2,10,2
9,1.703491,1,3,139,4,3,7
9,0.82521,0,2,105,1,2,6
9,1.509404,1,1,16,1,10,8
9,1.318857,1,1,41,2,10,1
9,1.735292,0,1,52,3,10,2
9,1.391473,0,1,124,3,4,6
9,1.724588,1,2,114,2,1,6
9,1.76511,0,2,130,3,4,5
9,1.861307,0,3,132,3,4,7
9,1.335547,1,3,43,2,11,4
9,1.206435,0,2,78,4,10,1
9,1.931662,0,3,55,3,11,4
9,2.83644,1,3,25,2,9,4
9,1.359976,0,1,136,4,3,6
9,2.063187,0,3,36,2,12,3
9,2.090084,0,2,93,4,11,8
9,1.716118,0,1,17,1,10,1
9,1.21238,0,1,20,1,11,8
9,1.43267,0,2,57,3,11,1
9,1.245089,0,1,113,2,1,5
9,1.737312,0,1,3,1,9,8
9,2.152791,0,3,85,4,9,4
9,1.760743,0,3,1,1,9,4
9,1.223595,0,1,44,2,11,8
9,1.372105,1,3,48,2,12,4
9,1.170175,0,2,46,2,12,2
9,2.401225,0,3,109,2,1,7
9,1.061985,1,1,29,2,10,8
9,1.361427,0,3,47,2,12,3
9,2.865211,0,1,100,1,2,5
9,1.322414,0,3,13,1,9,3
9,1.228202,0,3,12,1,12,3
9,1.240305,0,3,103,1,2,7
9,2.035436,0,2,45,2,11,2
9,1.607423,0,3,11,1,12,4
9,3.233934,0,3,84,4,12,3
9,1.278424,0,1,65,3,10,2
9,1.472492,0,3,96,4,12,4
9,1.587859,0,2,30,2,10,2
9,1.074196,0,1,135,4,3,6
9,1.539715,0,2,98,1,2,6
9,1.292294,0,3,120,2,1,7
9,1.910473,0,2,26,2,9,2
9,1.286777,0,2,58,3,12,8
9,1.145252,0,3,13,1,9,3
9,1.24924,0,1,125,3,4,6
9,1.108093,0,3,61,3,9,4
9,1.238285,0,2,94,4,12,1
9,2.097991,1,3,115,2,1,7
9,1.115172,0,2,10,1,12,2
9,1.091898,0,3,31,2,11,3
9,1.821426,0,2,34,2,12,2
9,1.642141,0,3,12,1,12,3
9,1.078103,0,1,87,4,9,2
9,1.376485,0,2,14,1,9,2
9,0.958809,0,1,113,2,1,5
9,0.870382,0,2,70,3,12,1
9,0.896787,1,3,7,1,11,3
9,1.354519,0,1,100,1,2,5
9,1.640624,0,3,107,1,2,7
9,1.381179,1,1,68,3,11,2
9,1.163783,0,3,144,4,3,7
9,1.985237,0,3,49,3,9,3
9,2.007549,0,1,15,1,9,1
9,1.004884,0,2,22,1,12,2
9,2.339052,0,3,103,1,2,7
9,1.53019,0,2,66,3,10,8
9,0.786023,0,2,21,1,11,2
9,1.504131,0,3,23,1,12,3
9,1.70498,0,1,88,4,10,2
9,1.00295,0,2,33,2,11,2
9,2.344243,0,1,39,2,9,1
9,0.727694,0,2,46,2,12,2
9,0.655691,0,2,106,1,2,6
9,1.307671,0,1,116,2,1,5
9,0.932553,0,3,132,3,4,7
9,1.036333,0,2,18,1,10,2
9,1.160469,0,1,64,3,10,2
9,1.04688,0,1,40,2,10,8
9,1.258797,0,3,37,2,9,3
9,0.9901,0,2,138,4,3,5
9,1.116287,0,1,112,2,1,5
9,1.460435,0,3,133,4,3,7
9,1.063879,0,1,51,3,9,2
9,1.267028,0,1,111,2,1,5
9,1.221762,0,3,91,4,11,3
9,0.977439,1,2,110,2,1,6
9,1.216733,0,1,92,4,11,2
9,1.013587,0,2,117,2,1,6
9,0.594199,0,2,90,4,10,8
9,1.271797,0,1,76,4,10,2
9,0.986456,0,2,114,2,1,6
9,1.400324,0,1,63,3,9,2
9,1.341484,0,3,55,3,11,4
9,2.885461,0,2,50,3,9,8
9,0.935916,0,1,3,1,9,8
9,1.159184,1,1,16,1,10,8
9,1.103093,0,3,11,1,12,4
9,1.528302,0,3,108,1,2,7
9,1.504378,0,2,93,4,11,8
9,0.889034,0,1,99,1,2,5
9,0.795413,0,1,27,2,9,8
9,1.280217,0,1,140,4,3,6
9,1.042239,0,2,141,4,3,5
9,1.574417,0,1,123,3,4,6
9,1.732719,0,1,80,4,11,2
9,1.148999,0,2,130,3,4,5
9,1.460696,0,1,128,3,4,6
9,1.831273,0,1,5,1,10,8
9,0.867487,0,2,54,3,10,1
9,1.765918,0,2,142,4,3,5
9,1.340392,0,3,59,3,12,4
9,1.124886,0,2,2,1,9,2
9,1.261031,0,2,69,3,11,8
9,1.271718,0,3,71,3,12,3
9,1.441909,0,1,136,4,3,6
9,1.14285,0,1,137,4,3,6
9,1.494033,1,3,119,2,1,7
9,1.936028,0,2,86,4,9,1
9,1.055562,0,1,101,1,2,5
9,1.059335,0,1,104,1,2,5
9,1.190445,0,3,85,4,9,4
9,1.867984,0,1,77,4,10,2
9,1.270882,0,1,89,4,10,2
9,0.728747,0,1,29,2,10,8
9,1.417265,0,3,95,4,12,3
9,1.702337,0,3,79,4,11,4
9,1.223121,0,3,24,1,12,4
9,0.964046,0,3,48,2,12,4
9,1.202831,0,3,25,2,9,4
9,1.480087,0,1,56,3,11,2
9,1.905941,0,3,83,4,12,4
9,1.42742,0,2,129,3,4,5
9,1.319793,0,2,126,3,4,5
9,1.22391,0,3,19,1,11,4
9,1.316506,0,1,20,1,11,8
9,2.068852,0,3,73,4,9,3
9,0.991596,0,3,109,2,1,7
9,1.341069,0,1,17,1,10,1
9,1.133506,0,1,44,2,11,8
9,0.92543,0,1,52,3,10,2
9,2.757628,1,2,42,2,10,2
9,1.485458,0,3,35,2,12,4
9,1.503207,0,3,1,1,9,4
9,1.064804,0,3,143,4,3,7
9,1.322715,0,1,53,3,10,2
9,1.683356,1,3,47,2,12,3
9,1.149377,0,2,74,4,9,8
9,1.405228,0,1,28,2,10,1
9,1.210128,0,3,139,4,3,7
9,1.231604,0,2,82,4,12,8
9,1.747378,1,2,105,1,2,6
9,1.025695,0,3,127,3,4,7
9,0.79882,0,2,9,1,11,2
9,1.284357,0,3,97,1,2,7
9,1.062728,0,3,36,2,12,3
9,1.904928,0,1,41,2,10,1
9,0.994491,1,2,102,1,2,6
9,0.832161,0,3,121,3,4,7
9,1.132663,1,2,62,3,9,1
9,1.380107,0,3,43,2,11,4
9,0.937724,0,3,72,3,12,4
9,0.794457,1,1,32,2,11,1
9,1.599515,0,1,8,1,11,1
9,0.99774,0,2,45,2,11,2
9,1.402386,0,2,57,3,11,1
9,1.992157,0,2,134,4,3,5
9,1.917664,0,2,122,3,4,5
9,1.342742,0,1,124,3,4,6
9,2.206613,1,3,67,3,11,3
9,1.299697,1,2,78,4,10,1
9,1.188886,0,2,81,4,11,1
9,1.634435,0,2,38,2,9,2
9,1.334976,0,1,75,4,9,2
9,1.278258,0,3,131,3,4,7
9,1.112817,0,3,60,3,12,3
9,2.985303,1,1,4,1,10,1
9,1.703024,1,2,118,2,1,6
9,1.552339,0,2,6,1,10,2
10,3.255886,1,2,134,4,3,5
10,1.079331,0,3,131,3,4,7
10,3.106898,0,2,140,4,3,5
10,1.93251,0,2,100,1,2,6
10,2.221976,0,2,26,2,9,2
10,1.354286,0,3,35,2,12,3
10,3.378492,1,1,106,1,2,5
10,2.504102,0,2,8,1,11,2
10,2.265175,1,2,77,4,10,1
10,3.309371,1,2,89,4,10,8
10,1.493501,0,3,78,4,10,3
10,2.144409,0,2,50,3,9,8
10,3.833385,1,1,94,4,12,2
10,4.354227,0,1,46,2,12,1
10,1.926606,0,3,9,1,11,4
10,1.608677,0,3,95,4,12,3
10,1.56699,1,1,34,2,12,8
10,1.815706,0,2,65,3,10,8
10,2.343333,0,3,23,1,12,4
10,2.854932,1,3,69,3,11,3
10,1.752574,0,1,70,3,12,2
10,1.073383,0,2,2,1,9,2
10,3.590729,0,2,44,2,11,2
10,1.291147,0,3,33,2,11,4
10,1.527259,1,1,43,2,11,8
10,2.232681,0,1,96,4,12,2
10,6.254344,1,3,141,4,3,7
10,5.969562,0,3,133,4,3,7
10,4.874078,0,1,115,2,1,5
10,1.417591,0,3,109,2,1,7
10,1.910878,1,2,53,3,10,1
10,1.362422,1,2,137,4,3,5
10,2.00368,0,3,117,2,1,7
10,1.84944,1,1,127,3,4,6
10,1.574846,0,3,121,3,4,7
10,3.438666,1,3,97,1,2,7
10,1.769631,0,2,29,2,10,2
10,1.561031,0,1,55,3,11,2
10,2.066615,1,2,38,2,9,2
10,6.293714,0,1,123,3,4,6
10,2.600867,0,2,17,1,10,2
10,1.661289,0,2,80,4,11,8
10,2.802341,1,1,84,4,12,2
10,5.695841,1,3,119,2,1,7
10,2.778583,0,2,116,2,1,6
10,2.559849,0,1,58,3,12,2
10,1.599334,1,1,144,4,3,6
10,3.847766,0,2,4,1,10,2
10,1.247999,0,1,75,4,9,2
10,0.790353,0,2,40,2,10,2
10,2.015988,0,1,7,1,11,1
10,2.155672,0,3,37,2,9,4
10,1.76359,1,2,20,1,11,2
10,1.283705,0,1,139,4,3,6
10,1.728828,0,3,138,4,3,7
10,2.857343,0,3,6,1,10,4
10,1.563982,0,2,74,4,9,8
10,1.245316,1,1,120,2,1,5
10,2.276623,1,2,86,4,9,1
10,1.550482,0,1,39,2,9,1
10,1.288871,0,2,104,1,2,6
10,0.757015,0,2,128,3,4,5
10,2.270882,1,2,64,3,10,8
10,2.010185,0,3,102,1,2,7
10,1.712092,0,2,16,1,10,2
10,0.899618,0,2,41,2,10,2
10,2.671932,0,3,85,4,9,4
10,1.257715,0,3,54,3,10,3
10,1.43927,1,1,111,2,1,5
10,1.862242,1,1,108,1,2,5
10,1.050757,1,1,91,4,11,2
10,1.74458,0,1,132,3,4,6
10,1.009423,0,3,25,2,9,3
10,1.073559,1,1,27,2,9,8
10,0.775199,1,2,136,4,3,5
10,2.513255,1,1,15,1,9,1
10,1.523151,1,2,113,2,1,6
10,1.837914,0,2,92,4,11,1
10,1.251592,0,1,63,3,9,2
10,1.224714,1,1,142,4,3,6
10,2.232841,1,1,72,3,12,2
10,1.045005,1,2,98,1,2,6
10,1.8747,0,1,19,1,11,8
10,3.222166,0,2,56,3,11,8
10,1.593485,1,2,76,4,10,1
10,1.088957,1,1,99,1,2,5
10,1.198741,1,1,60,3,12,2
10,2.566338,0,2,62,3,9,1
10,1.270253,0,3,143,4,3,7
10,1.388276,0,1,103,1,2,5
10,1.146828,1,1,10,1,12,8
10,1.725144,1,2,88,4,10,8
10,1.638504,1,2,122,3,4,5
10,2.436729,1,3,42,2,10,3
10,2.233166,0,3,47,2,12,4
10,1.494779,0,3,126,3,4,7
10,1.386434,0,2,68,3,11,1
10,0.754972,0,2,14,1,9,2
10,1.437204,1,1,31,2,11,1
10,1.786941,0,1,22,1,12,1
10,1.099162,0,3,49,3,9,3
10,1.670641,0,3,21,1,11,3
10,1.884112,0,2,124,3,4,5
10,1.207782,0,3,18,1,10,3
10,1.262577,1,1,12,1,12,1
10,1.723975,0,1,118,2,1,5
10,1.350414,1,1,36,2,12,1
10,1.42513,1,2,101,1,2,6
10,1.902732,0,1,130,3,4,6
10,1.809758,0,2,112,2,1,6
10,1.216655,0,3,11,1,12,3
10,1.480325,1,2,52,3,10,1
10,1.580107,0,2,28,2,10,2
10,1.211592,1,1,79,4,11,2
10,1.947681,0,1,3,1,9,8
10,1.331363,1,1,67,3,11,2
10,1.790496,0,3,90,4,10,4
10,1.718165,0,3,129,3,4,7
10,0.936608,0,3,105,1,2,7
10,1.484128,0,3,30,2,10,4
10,0.879074,0,3,73,4,9,3
10,2.612034,0,2,125,3,4,5
10,1.66568,0,3,45,2,11,3
10,1.486583,0,1,87,4,9,2
10,1.538885,0,3,81,4,11,4
10,1.132235,0,3,71,3,12,3
10,1.919132,0,1,24,1,12,8
10,2.640628,1,3,93,4,11,3
10,1.29979,0,3,107,1,2,7
10,1.951419,0,3,1,1,9,3
10,1.888505,0,2,5,1,10,2
10,1.603484,0,1,51,3,9,2
10,0.994672,1,1,48,2,12,8
10,2.812436,0,3,61,3,9,4
10,1.208295,0,3,66,3,10,4
10,1.000299,0,3,59,3,12,4
10,2.728448,0,2,32,2,11,2
10,2.697354,0,2,110,2,1,6
10,1.80153,0,3,13,1,9,4
10,1.081248,0,3,83,4,12,4
10,1.365717,0,3,57,3,11,4
10,1.390731,0,3,114,2,1,7
10,1.741474,0,1,82,4,12,2
10,1.159737,0,1,135,4,3,6
10,1.4866,0,1,96,4,12,2
10,2.316205,0,3,138,4,3,7
10,1.517092,0,1,70,3,12,2
10,1.302219,0,3,25,2,9,3
10,2.506357,0,1,7,1,11,1
10,1.803586,0,3,71,3,12,3
10,2.898578,0,2,137,4,3,5
10,1.546636,1,2,56,3,11,8
10,1.652071,0,3,54,3,10,3
10,1.682024,0,2,29,2,10,2
10,4.046128,1,1,87,4,9,2
10,2.206937,0,3,18,1,10,3
10,1.925321,0,3,93,4,11,3
10,1.056002,0,1,142,4,3,6
10,1.174453,0,3,37,2,9,4
10,1.296608,0,1,72,3,12,2
10,1.108147,0,3,119,2,1,7
10,1.19875,0,3,59,3,12,4
10,1.782626,0,3,13,1,9,4
10,1.574832,1,1,108,1,2,5
10,1.439139,0,3,105,1,2,7
10,1.132986,1,1,120,2,1,5
10,3.637988,0,2,44,2,11,2
10,1.256903,0,1,63,3,9,2
10,2.053465,0,2,112,2,1,6
10,1.273687,0,1,118,2,1,5
10,2.423227,0,1,27,2,9,8
10,1.323471,0,2,28,2,10,2
10,1.767672,0,3,107,1,2,7
10,2.151331,0,3,57,3,11,4
10,1.295036,0,2,62,3,9,1
10,0.803453,0,2,98,1,2,6
10,2.261005,1,3,21,1,11,3
10,1.688023,0,3,121,3,4,7
10,1.138644,0,3,42,2,10,3
10,1.526375,0,3,49,3,9,3
10,1.857875,1,2,125,3,4,5
10,0.805551,1,2,5,1,10,2
10,0.934425,0,3,23,1,12,4
10,1.065501,1,1,31,2,11,1
10,1.310843,0,1,67,3,11,2
10,1.185731,1,2,104,1,2,6
10,1.642012,0,3,129,3,4,7
10,2.038736,0,2,38,2,9,2
10,0.971651,0,2,68,3,11,1
10,0.956718,0,3,97,1,2,7
10,1.296061,0,1,39,2,9,1
10,1.805284,0,1,58,3,12,2
10,1.633566,1,2,89,4,10,8
10,1.135897,0,2,14,1,9,2
10,0.924339,0,3,30,2,10,4
10,0.974888,0,3,117,2,1,7
10,1.216299,1,2,17,1,10,2
10,1.167714,0,1,55,3,11,2
10,0.969393,0,2,134,4,3,5
10,0.602499,0,2,86,4,9,1
10,0.610694,0,2,140,4,3,5
10,0.588212,0,2,2,1,9,2
10,0.588212,0,2,74,4,9,8
10,0.515847,0,2,110,2,1,6
10,1.120999,1,2,76,4,10,1
10,1.842962,0,1,103,1,2,5
10,0.952552,1,1,94,4,12,2
10,0.939846,0,3,85,4,9,4
10,1.014225,0,1,43,2,11,8
10,0.622343,0,1,48,2,12,8
10,0.823732,1,1,111,2,1,5
10,0.935271,0,2,128,3,4,5
10,0.882941,1,2,52,3,10,1
10,1.350519,0,3,69,3,11,3
10,1.688798,0,3,109,2,1,7
10,1.36531,0,1,34,2,12,8
10,0.775395,0,2,26,2,9,2
10,1.418036,0,1,24,1,12,8
10,0.904781,0,3,61,3,9,4
10,0.886594,1,2,80,4,11,8
10,1.482747,1,3,95,4,12,3
10,3.36795,0,2,64,3,10,8
10,1.499629,1,1,19,1,11,8
10,1.096125,1,2,41,2,10,2
10,1.546909,0,3,35,2,12,3
10,1.68419,0,2,100,1,2,6
10,1.032902,0,3,6,1,10,4
10,0.944692,0,1,15,1,9,1
10,1.419499,0,2,101,1,2,6
10,1.354584,0,2,4,1,10,2
10,0.675338,0,2,65,3,10,8
10,1.569945,0,1,123,3,4,6
10,2.067156,1,1,144,4,3,6
10,1.031086,1,2,16,1,10,2
10,2.98257,0,3,102,1,2,7
10,1.067144,0,1,51,3,9,2
10,1.336595,0,1,106,1,2,5
10,1.322799,1,1,132,3,4,6
10,2.733724,1,3,90,4,10,4
10,1.26944,1,1,115,2,1,5
10,3.611897,1,1,84,4,12,2
10,1.309828,0,3,81,4,11,4
10,1.425638,0,1,139,4,3,6
10,1.792209,1,2,113,2,1,6
10,1.470437,0,1,10,1,12,8
10,0.868279,0,1,46,2,12,1
10,1.153496,1,1,12,1,12,1
10,1.250996,1,1,91,4,11,2
10,1.137506,0,3,133,4,3,7
10,1.163675,0,2,53,3,10,1
10,0.749095,0,2,88,4,10,8
10,1.079068,0,3,73,4,9,3
10,1.180173,0,3,11,1,12,3
10,1.909117,0,1,75,4,9,2
10,0.783549,1,1,127,3,4,6
10,0.904073,1,2,8,1,11,2
10,1.093043,0,2,122,3,4,5
10,1.217644,0,1,135,4,3,6
10,1.129489,1,1,130,3,4,6
10,0.949107,1,2,50,3,9,8
10,1.960054,1,3,78,4,10,3
10,1.808039,1,1,3,1,9,8
10,1.005051,1,1,82,4,12,2
10,0.88644,1,2,116,2,1,6
10,3.539692,0,1,99,1,2,5
10,1.250086,1,1,36,2,12,1
10,1.359528,0,1,22,1,12,1
10,1.161092,1,2,92,4,11,1
10,1.123379,0,3,126,3,4,7
10,3.72675,0,2,20,1,11,2
10,1.373484,0,2,124,3,4,5
10,0.910061,1,2,32,2,11,2
10,1.026005,1,2,40,2,10,2
10,0.619231,0,3,47,2,12,4
10,0.626868,0,3,66,3,10,4
10,0.82666,0,3,33,2,11,4
10,1.139433,0,1,60,3,12,2
10,1.326551,0,1,79,4,11,2
10,0.761151,0,3,45,2,11,3
10,0.644477,0,3,114,2,1,7
10,0.722742,0,3,9,1,11,4
10,0.97487,1,2,136,4,3,5
10,0.889522,0,3,1,1,9,3
10,0.889522,0,3,83,4,12,4
10,0.56595,0,3,131,3,4,7
10,1.633314,0,3,141,4,3,7
10,0.919454,0,3,143,4,3,7
10,1.826767,0,2,77,4,10,1
11,1.038519,0,1,130,3,4,6
11,1.170445,0,2,133,4,3,5
11,1.913451,0,1,45,2,11,8
11,1.04962,0,1,93,4,11,2
11,1.925022,0,3,60,3,12,4
11,1.645578,0,3,113,2,1,7
11,1.304791,0,1,46,2,12,1
11,0.906277,0,1,23,1,12,1
11,1.099397,0,2,13,1,9,2
11,1.39687,0,3,19,1,11,4
11,1.265995,0,2,42,2,10,2
11,0.988665,0,2,78,4,10,1
11,1.218387,0,3,120,2,1,7
11,1.431435,0,3,65,3,10,4
11,1.162796,0,1,107,1,2,5
11,1.026115,0,2,15,1,9,2
11,1.822382,0,3,79,4,11,3
11,1.63552,0,3,108,1,2,7
11,1.375106,0,3,132,3,4,7
11,1.24586,0,3,24,1,12,4
11,0.969262,0,1,34,2,12,8
11,0.93533,0,1,117,2,1,5
11,0.751475,0,2,30,2,10,2
11,0.790363,0,2,32,2,11,2
11,1.732382,0,2,3,1,9,2
11,0.589136,0,2,56,3,11,1
11,1.225985,0,3,139,4,3,7
11,1.718967,0,1,88,4,10,2
11,0.720105,0,2,66,3,10,8
11,1.064007,0,3,7,1,11,3
11,0.771386,0,1,40,2,10,8
11,0.64138,0,2,138,4,3,5
11,1.173636,0,3,41,2,10,3
11,1.020702,0,3,12,1,12,3
11,1.280958,1,1,143,4,3,6
11,0.890777,1,1,9,1,11,1
11,2.06857,0,3,89,4,10,4
11,1.111118,0,3,50,3,9,4
11,1.071734,0,3,134,4,3,7
11,1.826709,0,2,121,3,4,5
11,0.967433,0,2,1,1,9,2
11,1.445575,0,3,84,4,12,4
11,1.681424,0,1,106,1,2,5
11,1.315675,0,2,51,3,9,8
11,0.660401,0,2,6,1,10,2
11,1.056213,0,1,28,2,10,1
11,1.706208,0,3,122,3,4,7
11,1.123576,0,2,123,3,4,5
11,0.757037,0,2,8,1,11,2
11,1.13189,0,1,81,4,11,2
11,1.1873,0,1,129,3,4,6
11,1.497929,0,2,140,4,3,5
11,1.523716,0,1,22,1,12,1
11,1.035629,0,2,27,2,9,2
11,1.280357,0,3,14,1,9,3
11,1.12986,0,3,101,1,2,7
11,1.537911,0,3,48,2,12,4
11,1.193796,0,3,17,1,10,3
11,1.751582,0,3,96,4,12,3
11,1.134537,0,3,86,4,9,3
11,1.022842,0,2,39,2,9,2
11,1.203345,0,3,53,3,10,3
11,1.768313,0,1,16,1,10,8
11,1.167341,0,2,135,4,3,5
11,1.030107,0,3,115,2,1,7
11,2.48199,0,2,128,3,4,5
11,0.803168,0,2,18,1,10,2
11,1.320627,0,1,94,4,12,2
11,1.3301,0,3,31,2,11,3
11,1.121305,0,1,33,2,11,1
11,1.218336,0,3,38,2,9,3
11,1.039444,0,1,124,3,4,6
11,0.803289,0,2,97,1,2,6
11,1.144667,1,2,63,3,9,1
11,0.720062,0,2,99,1,2,6
11,1.05643,0,1,82,4,12,2
11,1.452585,1,2,75,4,9,8
11,1.327052,0,2,85,4,9,1
11,0.894475,0,1,11,1,12,8
11,1.113484,0,3,26,2,9,4
11,1.36203,0,3,98,1,2,7
11,1.416261,1,1,57,3,11,2
11,1.196587,1,2,114,2,1,6
11,1.121862,0,1,21,1,11,8
11,0.795548,0,1,76,4,10,2
11,0.832622,0,2,126,3,4,5
11,1.139833,0,3,43,2,11,4
11,1.076779,0,1,136,4,3,6
11,0.831071,0,1,112,2,1,5
11,1.218933,0,2,92,4,11,8
11,1.247382,1,2,37,2,9,2
11,1.419132,1,2,116,2,1,6
11,1.159319,0,2,68,3,11,8
11,0.646445,0,2,54,3,10,1
11,1.137722,0,2,61,3,9,1
11,1.121163,0,1,100,1,2,5
11,1.122611,0,2,20,1,11,2
11,0.987498,0,2,87,4,9,1
11,0.792934,0,2,111,2,1,6
11,1.294919,0,1,142,4,3,6
11,1.431786,1,1,105,1,2,5
11,1.196089,0,3,127,3,4,7
11,1.017535,0,3,72,3,12,3
11,1.054563,0,1,10,1,12,8
11,1.377359,0,3,125,3,4,7
11,0.944234,0,2,90,4,10,8
11,0.832074,0,1,131,3,4,6
11,0.971982,0,3,77,4,10,3
11,0.938827,0,3,137,4,3,7
11,1.09028,0,1,35,2,12,8
11,1.012825,0,3,110,2,1,7
11,0.99352,0,3,36,2,12,3
11,0.943237,0,1,70,3,12,2
11,0.671132,0,1,59,3,12,2
11,1.105524,0,1,69,3,11,2
11,0.787293,0,1,95,4,12,2
11,0.576828,0,1,47,2,12,1
11,0.975036,0,1,64,3,10,2
11,0.886149,0,3,103,1,2,7
11,0.824504,0,2,109,2,1,6
11,0.824504,0,2,25,2,9,2
11,0.79978,0,1,71,3,12,2
11,1.180197,0,1,141,4,3,6
11,2.946364,0,1,83,4,12,2
11,1.338289,0,3,62,3,9,3
11,1.08927,0,3,55,3,11,3
11,0.859329,0,3,91,4,11,4
11,0.814439,0,3,5,1,10,4
11,0.699569,0,3,29,2,10,4
11,0.964201,0,2,104,1,2,6
11,0.923334,0,2,102,1,2,6
11,1.244725,0,1,4,1,10,1
11,1.639386,0,3,2,1,9,4
11,1.02771,0,1,52,3,10,2
11,1.015444,0,3,67,3,11,4
11,0.868181,0,2,80,4,11,1
11,1.374872,0,3,74,4,9,4
11,1.045217,0,2,49,3,9,8
11,0.761542,0,1,119,2,1,5
11,1.031768,0,3,144,4,3,7
11,1.315913,0,1,58,3,12,2
11,0.684355,0,2,44,2,11,2
11,1.14243,0,2,73,4,9,8
11,0.774887,0,1,118,2,1,5
11,1.075647,0,2,63,3,9,1
11,0.93394,0,1,130,3,4,6
11,1.422146,0,3,14,1,9,3
11,1.69833,0,1,88,4,10,2
11,0.692487,0,2,44,2,11,2
11,0.854278,0,2,87,4,9,1
11,0.577625,0,2,92,4,11,8
11,1.135394,0,3,72,3,12,3
11,0.815894,0,1,52,3,10,2
11,1.196595,0,1,47,2,12,1
11,0.75372,0,2,6,1,10,2
11,0.817026,0,1,93,4,11,2
11,1.205936,0,3,31,2,11,3
11,1.603258,0,3,86,4,9,3
11,1.184616,0,1,4,1,10,1
11,0.670707,0,2,18,1,10,2
11,0.928498,0,2,25,2,9,2
11,1.432795,0,3,125,3,4,7
11,1.508183,0,3,36,2,12,3
11,1.254232,0,3,26,2,9,4
11,1.273399,0,3,19,1,11,4
11,2.148487,1,2,51,3,9,8
11,1.074919,0,3,43,2,11,4
11,1.142165,0,3,96,4,12,3
11,1.189515,0,2,97,1,2,6
11,0.81923,0,1,106,1,2,5
11,1.208671,0,2,73,4,9,8
11,0.909845,0,2,42,2,10,2
11,0.670674,0,2,56,3,11,1
11,1.048499,0,1,9,1,11,1
11,1.708488,0,1,23,1,12,1
11,1.644943,0,2,8,1,11,2
11,0.961406,0,1,40,2,10,8
11,1.104598,0,1,112,2,1,5
11,1.233555,0,3,77,4,10,3
11,0.821431,0,2,138,4,3,5
11,0.801378,0,1,33,2,11,1
11,1.01572,0,2,90,4,10,8
11,1.052036,0,1,70,3,12,2
11,1.191528,0,3,67,3,11,4
11,1.189597,0,1,94,4,12,2
11,1.147036,0,2,3,1,9,2
11,1.210436,0,2,37,2,9,2
11,1.287632,0,3,79,4,11,3
11,1.649926,0,1,45,2,11,8
11,0.805458,0,1,81,4,11,2
11,0.602097,0,1,69,3,11,2
11,1.543576,1,3,60,3,12,4
11,0.743321,0,2,75,4,9,8
11,0.543752,0,2,1,1,9,2
11,0.543752,0,2,123,3,4,5
11,0.889798,0,1,117,2,1,5
11,0.987237,0,2,78,4,10,1
11,1.105473,0,2,111,2,1,6
11,1.23442,0,3,24,1,12,4
11,1.174903,0,3,134,4,3,7
11,1.181518,0,3,122,3,4,7
11,0.987075,0,2,13,1,9,2
11,1.521339,0,3,110,2,1,7
11,1.353479,0,3,144,4,3,7
11,1.041169,0,3,5,1,10,4
11,0.853171,0,2,66,3,10,8
11,1.136536,0,1,142,4,3,6
11,0.824234,0,1,21,1,11,8
11,0.948929,0,1,143,4,3,6
11,0.62832,0,1,11,1,12,8
11,1.048386,0,3,89,4,10,4
11,0.811539,0,1,22,1,12,1
11,0.816563,0,2,39,2,9,2
11,0.62119,0,1,83,4,12,2
11,1.154216,0,2,109,2,1,6
11,1.201107,0,2,27,2,9,2
11,0.662743,0,2,68,3,11,8
11,1.153337,0,3,74,4,9,4
11,1.183868,0,3,65,3,10,4
11,0.645654,0,2,30,2,10,2
11,0.569644,0,2,54,3,10,1
11,0.520121,0,2,140,4,3,5
11,0.984928,0,1,131,3,4,6
11,0.551365,0,1,82,4,12,2
11,1.046226,0,3,38,2,9,3
11,1.161654,0,3,17,1,10,3
11,1.199946,0,1,16,1,10,8
11,0.988652,1,1,129,3,4,6
11,1.090979,0,2,15,1,9,2
11,1.213534,0,2,116,2,1,6
11,1.162133,0,1,76,4,10,2
11,1.048449,0,3,103,1,2,7
11,1.275898,0,3,132,3,4,7
11,1.134341,0,3,84,4,12,4
11,1.334109,0,1,107,1,2,5
11,0.566414,1,2,20,1,11,2
11,0.957186,0,3,113,2,1,7
11,0.964485,0,3,7,1,11,3
11,0.875464,0,1,95,4,12,2
11,0.965961,0,3,2,1,9,4
11,0.901111,0,3,101,1,2,7
11,1.237393,0,1,57,3,11,2
11,1.129402,0,2,61,3,9,1
11,0.922155,0,1,28,2,10,1
11,1.123022,0,3,55,3,11,3
11,1.282832,0,1,58,3,12,2
11,0.796587,0,1,10,1,12,8
11,0.682178,0,2,128,3,4,5
11,0.860181,0,1,119,2,1,5
11,1.095797,0,3,115,2,1,7
11,1.344667,0,3,29,2,10,4
11,1.11149,0,3,139,4,3,7
11,1.15355,0,3,48,2,12,4
11,0.80849,0,2,102,1,2,6
11,0.93389,0,1,71,3,12,2
11,0.773779,0,2,80,4,11,1
11,1.092862,0,3,12,1,12,3
11,1.150109,0,2,49,3,9,8
11,1.325087,0,3,53,3,10,3
11,1.020967,0,2,121,3,4,5
11,0.914706,0,2,85,4,9,1
11,1.194961,0,2,133,4,3,5
11,0.880834,0,1,35,2,12,8
11,1.250274,0,1,46,2,12,1
11,0.765342,0,2,114,2,1,6
11,1.316594,0,3,62,3,9,3
11,1.204884,0,2,135,4,3,5
11,1.289708,1,1,124,3,4,6
11,1.467214,0,3,127,3,4,7
11,1.142503,0,1,34,2,12,8
11,1.445781,0,1,59,3,12,2
11,1.416597,0,3,120,2,1,7
11,1.077147,0,3,98,1,2,7
11,0.991713,0,3,91,4,11,4
11,0.909026,0,1,141,4,3,6
11,1.023131,0,2,126,3,4,5
11,1.115345,0,1,64,3,10,2
11,1.23597,0,1,118,2,1,5
11,0.631666,0,2,104,1,2,6
11,0.628384,0,2,32,2,11,2
11,0.944171,0,1,136,4,3,6
11,1.015395,0,1,105,1,2,5
11,1.115673,0,2,99,1,2,6
11,1.500541,0,3,41,2,10,3
11,1.229928,0,3,137,4,3,7
11,0.897763,0,1,100,1,2,5
11,1.107179,0,3,108,1,2,7
11,1.444914,0,3,50,3,9,4
12,4.508304,0,1,93,4,11,2
12,1.428247,1,1,83,4,12,2
12,2.224823,1,1,97,1,2,5
12,1.701503,0,3,100,1,2,7
12,1.838739,1,2,36,2,12,2
12,2.354616,1,1,37,2,9,1
12,1.722495,1,1,92,4,11,2
12,8.28313,1,3,29,2,10,4
12,1.556904,0,2,12,1,12,2
12,2.915531,0,1,8,1,11,1
12,4.244118,0,3,39,2,9,4
12,3.039531,0,3,101,1,2,7
12,4.683777,1,3,123,3,4,7
12,2.221061,0,1,11,1,12,1
12,3.946284,1,3,27,2,9,3
12,2.360567,1,3,135,4,3,7
12,3.399247,0,2,139,4,3,5
12,1.981542,1,2,72,3,12,1
12,2.906203,0,2,46,2,12,2
12,2.57249,1,1,73,4,9,2
12,2.106299,0,1,9,1,11,8
12,4.156154,0,2,24,1,12,2
12,1.531279,0,3,88,4,10,4
12,2.052559,1,2,94,4,12,8
12,1.758923,0,2,70,3,12,8
12,2.702133,1,2,48,2,12,2
12,1.303389,0,1,85,4,9,2
12,1.536645,0,1,109,2,1,5
12,1.431993,0,2,103,1,2,6
12,1.612075,1,1,57,3,11,2
12,2.497936,0,1,104,1,2,5
12,1.698113,0,1,105,1,2,5
12,1.72392,0,3,86,4,9,4
12,1.252691,0,1,117,2,1,5
12,1.136202,0,1,1,1,9,8
12,2.167941,0,2,30,2,10,2
12,1.5504,1,2,114,2,1,6
12,0.909885,0,1,69,3,11,2
12,1.438898,0,1,49,3,9,2
12,2.115008,0,2,55,3,11,1
12,1.562768,1,1,59,3,12,2
12,1.60205,1,1,133,4,3,6
12,2.543138,0,3,62,3,9,4
12,1.687139,0,3,74,4,9,3
12,2.400143,0,2,6,1,10,2
12,1.942262,0,3,53,3,10,4
12,2.02237,1,1,33,2,11,8
12,1.714779,0,2,102,1,2,6
12,1.851418,0,3,15,1,9,4
12,2.022181,0,3,28,2,10,3
12,1.433789,0,3,41,2,10,3
12,1.790412,1,1,68,3,11,2
12,2.700035,1,1,61,3,9,2
12,1.40488,0,3,4,1,10,3
12,2.930821,0,2,31,2,11,2
12,1.970675,0,3,5,1,10,4
12,1.800827,0,3,125,3,4,7
12,1.309631,0,1,45,2,11,1
12,1.246738,0,1,32,2,11,1
12,1.234689,0,2,91,4,11,8
12,0.846532,0,2,67,3,11,8
12,1.666093,0,3,51,3,9,4
12,1.196671,1,2,18,1,10,2
12,1.697746,0,1,47,2,12,8
12,0.811255,0,1,44,2,11,8
12,1.536169,0,3,113,2,1,7
12,2.223891,1,2,54,3,10,8
12,2.124932,0,2,60,3,12,8
12,0.789931,0,2,126,3,4,5
12,1.723686,1,1,25,2,9,8
12,1.932045,0,3,87,4,9,3
12,1.331608,0,3,14,1,9,3
12,1.427985,0,3,2,1,9,4
12,1.912068,1,1,81,4,11,2
12,2.112641,0,1,80,4,11,2
12,1.017486,0,1,119,2,1,5
12,1.438354,0,3,137,4,3,7
12,1.817931,0,2,58,3,12,1
12,1.431043,1,2,120,2,1,6
12,1.786927,0,2,84,4,12,8
12,1.503948,0,3,77,4,10,4
12,1.329175,0,1,13,1,9,1
12,2.170196,0,2,132,3,4,5
12,1.504583,0,3,89,4,10,3
12,1.458119,0,3,76,4,10,3
12,1.46928,0,1,107,1,2,5
12,1.248152,0,2,130,3,4,5
12,1.578907,1,1,116,2,1,5
12,1.769303,0,2,66,3,10,1
12,1.432032,0,3,122,3,4,7
12,1.619783,0,2,78,4,10,8
12,1.36046,0,3,98,1,2,7
12,1.51977,0,3,52,3,10,3
12,1.584288,0,3,50,3,9,3
12,1.285034,0,2,82,4,12,1
12,1.94339,1,3,124,3,4,7
12,1.152166,0,2,42,2,10,2
12,2.743473,1,3,99,1,2,7
12,1.439345,0,2,118,2,1,6
12,1.475437,0,3,38,2,9,3
12,1.189062,0,2,10,1,12,2
12,1.578703,1,1,128,3,4,6
12,3.169559,1,3,17,1,10,3
12,1.791345,0,1,140,4,3,6
12,1.38183,0,3,75,4,9,4
12,1.403814,1,2,19,1,11,2
12,1.313209,0,3,111,2,1,7
12,1.305734,0,1,21,1,11,1
12,0.826745,0,1,71,3,12,2
12,1.439214,0,3,26,2,9,4
12,1.018458,0,2,115,2,1,6
12,0.887749,0,2,43,2,11,2
12,1.304803,0,1,20,1,11,8
12,1.065886,0,2,22,1,12,2
12,1.029039,0,3,136,4,3,7
12,1.52121,0,3,110,2,1,7
12,1.969471,0,2,90,4,10,1
12,1.311805,0,3,64,3,10,4
12,1.009246,0,2,79,4,11,1
12,0.709681,0,2,106,1,2,6
12,0.703641,0,2,127,3,4,5
12,1.457028,1,2,108,1,2,6
12,1.692416,0,1,95,4,12,2
12,1.261527,0,3,16,1,10,4
12,0.873078,0,2,34,2,12,2
12,1.083988,0,2,96,4,12,1
12,2.021628,1,1,121,3,4,6
12,1.226415,0,1,143,4,3,6
12,1.574609,0,3,63,3,9,3
12,1.469555,0,1,131,3,4,6
12,1.215397,0,2,7,1,11,2
12,1.420423,0,3,40,2,10,4
12,2.976975,0,1,129,3,4,6
12,1.488123,0,2,144,4,3,5
12,1.505494,1,1,23,1,12,8
12,1.323266,0,1,35,2,12,1
12,1.443103,1,1,141,4,3,6
12,1.351283,0,1,56,3,11,2
12,1.487152,1,3,112,2,1,7
12,1.497086,0,3,65,3,10,3
12,1.953641,0,3,3,1,9,3
12,1.225134,0,2,142,4,3,5
12,1.422008,0,3,134,4,3,7
12,2.785767,0,2,138,4,3,5
12,1.718677,0,2,58,3,12,1
12,1.359677,0,3,100,1,2,7
12,1.895031,0,1,131,3,4,6
12,1.320918,0,3,29,2,10,4
12,1.082006,0,1,32,2,11,1
12,1.179617,0,3,51,3,9,4
12,1.393677,0,1,35,2,12,1
12,1.263675,0,2,126,3,4,5
12,1.250021,0,1,13,1,9,1
12,2.349508,1,1,105,1,2,5
12,1.092937,0,1,81,4,11,2
12,1.550695,0,3,110,2,1,7
12,1.486159,0,2,70,3,12,8
12,1.368182,0,1,97,1,2,5
12,1.238822,0,1,71,3,12,2
12,1.282853,0,1,121,3,4,6
12,1.540709,0,2,22,1,12,2
12,0.883688,0,2,31,2,11,2
12,1.39009,1,2,132,3,4,5
12,1.23639,1,3,111,2,1,7
12,1.390329,1,1,49,3,9,2
12,0.957497,0,2,24,1,12,2
12,1.57871,0,2,127,3,4,5
12,1.601296,0,3,89,4,10,3
12,1.214752,0,2,46,2,12,2
12,1.251615,0,3,88,4,10,4
12,2.800371,0,2,60,3,12,8
12,1.221623,0,1,8,1,11,1
12,1.658766,0,3,5,1,10,4
12,1.125517,0,3,39,2,9,4
12,1.093716,0,2,115,2,1,6
12,1.239315,1,3,122,3,4,7
12,1.043818,0,1,57,3,11,2
12,1.543306,0,1,20,1,11,8
12,1.295328,0,3,2,1,9,4
12,1.480533,0,2,94,4,12,8
12,1.137906,0,3,41,2,10,3
12,0.929795,1,1,92,4,11,2
12,1.202333,0,1,73,4,9,2
12,1.143527,0,2,130,3,4,5
12,2.055574,0,2,120,2,1,6
12,1.618763,1,1,45,2,11,1
12,2.063377,0,1,37,2,9,1
12,1.401433,0,1,85,4,9,2
12,0.750752,0,2,7,1,11,2
12,0.686758,0,2,139,4,3,5
12,1.35237,0,3,123,3,4,7
12,1.183969,0,3,62,3,9,4
12,0.748915,0,2,55,3,11,1
12,1.156388,0,2,36,2,12,2
12,1.468267,1,1,117,2,1,5
12,1.326748,0,3,134,4,3,7
12,1.647498,0,2,18,1,10,2
12,1.194825,0,3,16,1,10,4
12,1.528468,0,2,10,1,12,2
12,1.448603,0,1,109,2,1,5
12,1.227527,0,3,74,4,9,3
12,1.82337,0,1,140,4,3,6
12,1.468226,0,1,61,3,9,2
12,1.319389,1,3,77,4,10,4
12,1.272322,0,2,106,1,2,6
12,1.178578,0,3,98,1,2,7
12,1.12099,0,2,103,1,2,6
12,1.105079,0,2,42,2,10,2
12,1.282502,0,3,50,3,9,3
12,1.780848,0,1,23,1,12,8
12,1.418552,0,3,4,1,10,3
12,1.23904,0,2,78,4,10,8
12,1.171006,0,3,17,1,10,3
12,1.033928,0,3,113,2,1,7
12,0.877482,0,2,12,1,12,2
12,1.904142,0,3,3,1,9,3
12,1.281826,0,1,83,4,12,2
12,1.035398,0,1,68,3,11,2
12,1.439298,0,2,118,2,1,6
12,1.491815,1,2,72,3,12,1
12,1.669387,0,1,141,4,3,6
12,0.728239,0,1,95,4,12,2
12,1.384028,1,2,144,4,3,5
12,1.335025,1,3,64,3,10,4
12,1.686376,0,2,43,2,11,2
12,1.112404,0,3,101,1,2,7
12,0.817045,0,2,67,3,11,8
12,1.413383,1,3,53,3,10,4
12,1.338541,1,1,133,4,3,6
12,1.097668,0,2,90,4,10,1
12,1.179141,0,1,9,1,11,8
12,1.456681,0,2,84,4,12,8
12,1.397104,0,3,40,2,10,4
12,1.369907,0,3,27,2,9,3
12,1.296368,0,2,19,1,11,2
12,1.161935,0,3,76,4,10,3
12,1.576623,1,3,125,3,4,7
12,1.327355,0,3,87,4,9,3
12,1.183593,0,1,21,1,11,1
12,1.221764,1,3,26,2,9,4
12,1.39409,0,2,30,2,10,2
12,1.200411,0,3,135,4,3,7
12,2.173348,0,3,15,1,9,4
12,1.18027,0,3,38,2,9,3
12,1.265947,0,1,44,2,11,8
12,0.772462,0,1,119,2,1,5
12,0.763018,0,1,80,4,11,2
12,1.249902,0,3,136,4,3,7
12,1.869012,0,2,6,1,10,2
12,0.736224,0,2,102,1,2,6
12,1.33522,1,1,25,2,9,8
12,1.272178,0,3,65,3,10,3
12,1.490324,0,1,69,3,11,2
12,1.411556,0,3,75,4,9,4
12,1.136673,0,1,33,2,11,8
12,1.329156,0,1,11,1,12,1
12,0.881076,0,1,128,3,4,6
12,1.33116,0,3,86,4,9,4
12,1.098685,0,2,142,4,3,5
12,1.091886,0,3,112,2,1,7
12,1.629529,1,3,124,3,4,7
12,1.113808,0,2,108,1,2,6
12,1.458938,0,3,52,3,10,3
12,0.885519,0,2,91,4,11,8
12,1.127963,0,1,59,3,12,2
12,1.344511,0,2,54,3,10,8
12,1.535698,1,2,114,2,1,6
12,1.447524,1,2,96,4,12,1
12,1.402667,0,3,14,1,9,3
12,0.743533,0,2,34,2,12,2
12,0.599968,0,2,79,4,11,1
12,1.30072,0,3,63,3,9,3
12,1.231023,0,3,137,4,3,7
12,0.995151,0,1,104,1,2,5
12,0.680057,0,1,143,4,3,6
12,1.161608,0,2,48,2,12,2
12,1.377004,0,2,66,3,10,1
12,1.118277,1,1,1,1,9,8
12,1.35991,0,3,28,2,10,3
12,1.022082,0,2,82,4,12,1
12,1.778915,0,1,47,2,12,8
12,1.913164,0,1,129,3,4,6
12,1.192955,0,1,107,1,2,5
12,1.455763,1,3,99,1,2,7
12,0.769124,1,1,116,2,1,5
12,0.782811,0,1,56,3,11,2
12,1.333719,0,2,138,4,3,5
12,1.300762,0,1,93,4,11,2
13,1.333946,0,3,45,2,11,3
13,1.429332,0,2,62,3,9,1
13,0.977441,1,2,4,1,10,2
13,1.976895,0,1,75,4,9,2
13,1.503401,0,2,73,4,9,1
13,1.584156,1,2,50,3,9,8
13,1.254437,0,3,138,4,3,7
13,1.274006,0,2,74,4,9,8
13,1.140203,0,1,144,4,3,6
13,1.284753,0,3,101,1,2,7
13,1.229877,0,3,21,1,11,3
13,1.07385,0,1,20,1,11,8
13,2.80472,1,1,140,4,3,6
13,1.362408,0,3,117,2,1,7
13,1.33702,0,2,35,2,12,2
13,0.808908,0,2,11,1,12,2
13,1.197792,1,3,77,4,10,3
13,1.003288,0,2,37,2,9,2
13,1.424972,1,3,66,3,10,3
13,1.317585,0,1,108,1,2,5
13,1.653072,1,3,89,4,10,4
13,1.464731,1,2,40,2,10,2
13,1.882963,0,1,130,3,4,6
13,1.789985,1,3,65,3,10,4
13,1.155895,0,2,112,2,1,6
13,1.506871,1,1,132,3,4,6
13,1.43584,0,3,90,4,10,3
13,0.904049,0,2,16,1,10,2
13,1.217851,1,3,126,3,4,7
13,1.566278,0,3,5,1,10,3
13,0.756118,0,2,136,4,3,5
13,0.636266,1,1,123,3,4,6
13,1.472288,0,3,29,2,10,3
13,1.538349,1,2,143,4,3,5
13,1.258239,1,1,10,1,12,8
13,1.413592,0,1,111,2,1,5
13,0.882292,0,1,128,3,4,6
13,1.451959,1,3,17,1,10,4
13,1.423699,0,2,107,1,2,6
13,1.012505,1,1,27,2,9,8
13,1.792242,1,3,113,2,1,7
13,2.046611,1,1,68,3,11,2
13,1.498389,0,2,59,3,12,8
13,1.619568,0,1,135,4,3,6
13,1.511356,1,3,31,2,11,4
13,0.77699,0,2,124,3,4,5
13,1.615177,1,3,102,1,2,7
13,1.836174,1,3,19,1,11,3
13,1.431239,0,3,115,2,1,7
13,1.251685,0,1,8,1,11,1
13,1.054087,0,1,120,2,1,5
13,1.728958,0,1,87,4,9,2
13,1.65726,0,3,105,1,2,7
13,1.644545,1,2,13,1,9,2
13,1.312706,0,1,48,2,12,8
13,1.073724,0,3,57,3,11,4
13,1.547366,0,3,67,3,11,4
13,1.530907,1,2,110,2,1,6
13,1.017934,0,1,36,2,12,1
13,1.070656,0,3,139,4,3,7
13,1.032857,0,1,84,4,12,2
13,1.437428,0,3,137,4,3,7
13,1.673938,0,1,63,3,9,2
13,1.107497,0,2,121,3,4,5
13,1.221067,1,2,134,4,3,5
13,1.489729,0,2,71,3,12,1
13,1.691421,1,1,92,4,11,2
13,1.16558,0,2,25,2,9,2
13,1.028144,0,2,28,2,10,2
13,1.376267,0,2,49,3,9,1
13,1.518376,0,3,6,1,10,3
13,1.111607,0,1,56,3,11,2
13,1.576509,0,3,78,4,10,4
13,0.799226,0,1,116,2,1,5
13,1.492305,0,2,76,4,10,1
13,1.230225,0,2,98,1,2,6
13,1.234504,0,1,104,1,2,5
13,0.925497,0,2,131,3,4,5
13,1.981813,1,3,69,3,11,3
13,1.451987,0,3,41,2,10,4
13,1.079703,0,3,141,4,3,7
13,1.497176,0,1,118,2,1,5
13,0.850329,0,1,22,1,12,1
13,1.549974,0,3,7,1,11,4
13,1.693592,0,3,42,2,10,4
13,1.535019,0,2,47,2,12,2
13,1.558901,1,3,53,3,10,3
13,1.430211,1,3,129,3,4,7
13,0.761939,0,2,26,2,9,2
13,1.417108,0,1,96,4,12,2
13,0.8785,0,1,32,2,11,1
13,1.120537,0,1,94,4,12,2
13,0.752563,1,3,54,3,10,4
13,1.248376,0,3,81,4,11,4
13,1.379405,0,2,64,3,10,8
13,1.681031,0,3,91,4,11,4
13,1.170799,0,2,122,3,4,5
13,1.304581,1,2,52,3,10,1
13,1.458608,0,1,142,4,3,6
13,0.853579,0,1,51,3,9,2
13,1.152279,0,2,86,4,9,1
13,1.12752,0,1,12,1,12,1
13,0.68052,0,1,80,4,11,2
13,1.018332,0,1,15,1,9,1
13,1.078641,1,3,43,2,11,3
13,1.017107,0,1,39,2,9,1
13,0.77387,0,2,61,3,9,8
13,0.779936,0,1,82,4,12,2
13,1.001707,0,3,93,4,11,3
13,0.82301,0,1,60,3,12,2
13,1.292166,0,1,72,3,12,2
13,1.798133,1,2,83,4,12,8
13,0.994499,1,3,114,2,1,7
13,1.329296,0,3,9,1,11,4
13,1.576821,1,2,2,1,9,2
13,1.751098,0,2,100,1,2,6
13,1.12668,1,3,79,4,11,3
13,1.430786,0,3,127,3,4,7
13,1.452367,0,1,46,2,12,1
13,1.173995,1,2,85,4,9,8
13,1.165732,0,3,55,3,11,3
13,0.899972,0,2,133,4,3,5
13,0.99744,1,3,125,3,4,7
13,0.770442,0,1,44,2,11,8
13,1.288467,1,2,38,2,9,2
13,1.714772,0,2,14,1,9,2
13,1.04305,0,3,18,1,10,4
13,1.430616,1,1,99,1,2,5
13,0.922852,0,2,119,2,1,6
13,1.347176,1,2,1,1,9,2
13,0.978587,0,2,88,4,10,8
13,0.856673,0,3,30,2,10,3
13,1.268114,1,2,23,1,12,2
13,0.854639,0,2,95,4,12,1
13,1.417954,1,2,97,1,2,6
13,1.222646,1,1,106,1,2,5
13,1.251612,0,3,103,1,2,7
13,1.238993,0,3,33,2,11,4
13,1.24984,0,1,58,3,12,2
13,1.381451,1,1,34,2,12,8
13,1.163896,0,1,3,1,9,8
13,1.066576,1,1,24,1,12,8
13,1.133384,1,1,70,3,12,2
13,0.844883,0,2,109,2,1,6
13,1.491579,0,2,100,1,2,6
13,0.81403,0,2,23,1,12,2
13,0.945996,0,1,111,2,1,5
13,0.817308,0,2,119,2,1,6
13,1.004582,0,1,99,1,2,5
13,0.722236,1,3,101,1,2,7
13,0.963257,1,3,30,2,10,3
13,1.201653,1,2,64,3,10,8
13,0.911109,0,1,108,1,2,5
13,1.111024,1,3,141,4,3,7
13,0.928416,0,1,48,2,12,8
13,1.039714,0,3,105,1,2,7
13,1.124822,0,2,47,2,12,2
13,1.372798,0,3,41,2,10,4
13,1.283531,0,2,122,3,4,5
13,1.493606,0,2,11,1,12,2
13,1.383792,0,1,22,1,12,1
13,1.645397,1,3,65,3,10,4
13,1.21732,1,3,42,2,10,4
13,0.981691,1,2,4,1,10,2
13,1.059635,0,1,34,2,12,8
13,0.97393,0,1,32,2,11,1
13,1.525186,1,3,81,4,11,4
13,1.229399,1,2,124,3,4,5
13,1.120625,0,2,134,4,3,5
13,1.609249,1,2,50,3,9,8
13,1.078061,0,3,43,2,11,3
13,1.256639,0,2,97,1,2,6
13,0.971979,1,2,74,4,9,8
13,0.914562,0,1,24,1,12,8
13,0.913785,0,2,2,1,9,2
13,1.082869,0,2,86,4,9,1
13,0.868301,0,1,132,3,4,6
13,0.974482,0,3,89,4,10,4
13,0.94135,0,1,3,1,9,8
13,1.405369,1,1,68,3,11,2
13,1.563218,1,3,33,2,11,4
13,1.225797,0,1,128,3,4,6
13,1.341731,0,3,18,1,10,4
13,1.077288,0,2,38,2,9,2
13,0.943506,0,1,51,3,9,2
13,0.783161,0,1,44,2,11,8
13,1.213186,0,3,78,4,10,4
13,1.298133,0,2,121,3,4,5
13,1.164003,0,2,13,1,9,2
13,1.250642,0,2,136,4,3,5
13,0.79771,0,1,116,2,1,5
13,1.010472,0,3,21,1,11,3
13,1.343635,0,3,137,4,3,7
13,0.871673,0,1,96,4,12,2
13,0.80225,1,3,31,2,11,4
13,1.183724,0,2,76,4,10,1
13,1.181237,1,3,55,3,11,3
13,0.675004,0,2,85,4,9,8
13,0.797737,0,2,14,1,9,2
13,1.163294,0,3,90,4,10,3
13,1.545879,0,1,58,3,12,2
13,1.193196,0,2,131,3,4,5
13,1.26314,1,3,5,1,10,3
13,1.441394,0,1,8,1,11,1
13,1.524735,1,1,130,3,4,6
13,1.100602,0,1,56,3,11,2
13,1.214388,0,3,67,3,11,4
13,1.386703,0,2,110,2,1,6
13,1.704571,1,3,29,2,10,3
13,1.065783,0,1,63,3,9,2
13,0.933764,0,3,17,1,10,4
13,1.029101,0,1,27,2,9,8
13,1.63239,0,1,39,2,9,1
13,1.02085,0,1,46,2,12,1
13,1.224649,0,1,104,1,2,5
13,0.99752,0,1,70,3,12,2
13,0.938763,0,2,37,2,9,2
13,0.787186,0,1,142,4,3,6
13,1.392658,0,2,83,4,12,8
13,1.070195,0,1,20,1,11,8
13,0.672604,0,1,120,2,1,5
13,0.643151,0,1,36,2,12,1
13,0.879744,0,1,12,1,12,1
13,1.175903,0,3,113,2,1,7
13,1.039377,1,3,91,4,11,4
13,1.307206,0,2,98,1,2,6
13,0.908574,0,3,57,3,11,4
13,1.021139,0,2,71,3,12,1
13,0.793742,0,2,26,2,9,2
13,0.639331,0,1,84,4,12,2
13,0.57887,0,2,95,4,12,1
13,1.120887,1,2,133,4,3,5
13,0.618535,0,2,107,1,2,6
13,0.775108,1,3,125,3,4,7
13,1.22992,0,2,40,2,10,2
13,0.705549,0,2,112,2,1,6
13,0.818368,0,1,72,3,12,2
13,0.631536,0,1,144,4,3,6
13,1.018548,0,3,53,3,10,3
13,1.496093,0,3,114,2,1,7
13,1.113199,0,2,59,3,12,8
13,0.87327,0,3,9,1,11,4
13,0.971784,1,3,138,4,3,7
13,0.850185,0,3,102,1,2,7
13,0.813414,0,1,80,4,11,2
13,0.833033,0,2,1,1,9,2
13,0.60587,0,2,109,2,1,6
13,1.17918,0,3,127,3,4,7
13,1.361152,1,3,69,3,11,3
13,0.952015,0,2,35,2,12,2
13,1.062869,0,3,103,1,2,7
13,0.817819,0,1,140,4,3,6
13,0.958638,0,2,62,3,9,1
13,1.086088,1,1,87,4,9,2
13,1.272235,0,1,123,3,4,6
13,1.474248,1,3,77,4,10,3
13,0.788381,0,2,49,3,9,1
13,1.074866,0,3,139,4,3,7
13,0.932246,0,2,16,1,10,2
13,0.892771,0,3,66,3,10,3
13,1.231162,0,1,10,1,12,8
13,1.074815,0,1,82,4,12,2
13,0.75806,0,2,28,2,10,2
13,0.901199,1,2,88,4,10,8
13,1.382012,0,1,106,1,2,5
13,1.084208,0,3,7,1,11,4
13,0.933705,0,2,143,4,3,5
13,1.013412,0,3,6,1,10,3
13,1.057762,0,1,15,1,9,1
13,0.868977,0,1,118,2,1,5
13,1.200121,0,3,115,2,1,7
13,0.957329,0,1,75,4,9,2
13,1.108531,0,3,45,2,11,3
13,0.901768,0,3,129,3,4,7
13,0.894764,0,1,94,4,12,2
13,1.040447,1,1,60,3,12,2
13,1.396305,1,3,126,3,4,7
13,1.032585,1,3,93,4,11,3
13,0.948609,0,3,54,3,10,4
13,1.269109,0,3,79,4,11,3
13,0.7994,0,1,92,4,11,2
13,0.923886,0,1,135,4,3,6
13,0.692805,0,2,61,3,9,8
13,1.309585,0,3,19,1,11,3
13,0.847363,0,2,73,4,9,1
13,1.330503,1,2,52,3,10,1
13,0.842679,0,2,25,2,9,2
13,1.005979,0,3,117,2,1,7
14,3.583626,1,1,144,4,3,6
14,2.027141,0,3,136,4,3,7
14,2.913054,1,1,30,2,10,1
14,2.017368,1,2,5,1,10,2
14,1.831301,0,3,4,1,10,3
14,3.164166,1,2,137,4,3,5
14,1.90654,0,3,98,1,2,7
14,3.085848,0,2,73,4,9,8
14,2.030146,0,3,76,4,10,4
14,5.963887,1,1,87,4,9,2
14,5.604205,0,1,126,3,4,6
14,1.67483,0,3,117,2,1,7
14,1.767553,0,3,21,1,11,3
14,4.200162,0,1,96,4,12,2
14,2.162104,0,1,132,3,4,6
14,2.706419,0,1,27,2,9,8
14,2.156,1,2,53,3,10,1
14,2.19461,0,3,32,2,11,3
14,2.634174,0,1,78,4,10,2
14,1.972803,0,2,97,1,2,6
14,1.853875,0,2,58,3,12,1
14,2.146545,0,2,106,1,2,6
14,1.866837,0,1,42,2,10,8
14,1.662922,0,3,69,3,11,3
14,2.010988,0,2,35,2,12,2
14,1.650225,0,1,84,4,12,2
14,1.607391,0,2,37,2,9,2
14,2.077344,1,1,51,3,9,2
14,2.112993,1,2,89,4,10,8
14,1.618577,1,1,67,3,11,2
14,2.089798,0,3,20,1,11,4
14,1.635263,0,3,104,1,2,7
14,2.809281,0,1,19,1,11,8
14,1.525288,0,3,81,4,11,4
14,2.743201,0,1,111,2,1,5
14,2.807745,0,2,143,4,3,5
14,1.755359,0,3,129,3,4,7
14,2.229942,0,2,118,2,1,6
14,1.537414,0,3,112,2,1,7
14,1.642701,1,1,63,3,9,2
14,2.417287,0,1,139,4,3,6
14,1.455358,0,3,124,3,4,7
14,2.237153,0,1,115,2,1,5
14,1.522215,0,1,123,3,4,6
14,1.732987,1,1,72,3,12,2
14,1.630434,0,2,1,1,9,2
14,1.932932,0,3,45,2,11,3
14,1.52498,0,2,83,4,12,8
14,1.431765,0,2,29,2,10,2
14,1.637985,0,3,56,3,11,3
14,2.667894,0,1,24,1,12,1
14,1.479005,0,2,142,4,3,5
14,1.635236,0,3,134,4,3,7
14,1.712934,0,3,57,3,11,4
14,1.549191,0,3,100,1,2,7
14,1.485149,0,3,80,4,11,3
14,3.690504,0,1,31,2,11,1
14,1.697607,0,2,131,3,4,5
14,1.412431,0,1,66,3,10,2
14,2.596204,0,2,107,1,2,6
14,1.698301,0,2,109,2,1,6
14,1.34934,0,3,128,3,4,7
14,1.478093,0,2,17,1,10,2
14,1.907486,0,3,88,4,10,3
14,1.428826,0,2,133,4,3,5
14,1.436774,0,1,43,2,11,8
14,1.39521,0,1,79,4,11,2
14,1.467568,0,1,6,1,10,1
14,1.74518,1,2,82,4,12,1
14,1.705771,0,2,85,4,9,1
14,1.436821,0,3,62,3,9,4
14,1.60162,0,1,120,2,1,5
14,1.642116,0,2,34,2,12,2
14,1.686574,1,2,22,1,12,2
14,1.675175,0,3,50,3,9,3
14,1.430262,0,3,2,1,9,4
14,1.452064,0,2,59,3,12,8
14,2.505578,0,2,101,1,2,6
14,1.395942,0,3,93,4,11,3
14,1.555663,0,3,64,3,10,3
14,1.261773,0,3,16,1,10,4
14,1.474785,0,3,28,2,10,3
14,2.20097,1,1,75,4,9,2
14,1.294492,0,2,121,3,4,5
14,1.498857,0,1,60,3,12,2
14,1.511084,0,2,94,4,12,8
14,1.506636,0,3,44,2,11,4
14,1.877336,0,1,127,3,4,6
14,2.169991,0,1,12,1,12,8
14,1.432963,0,2,130,3,4,5
14,1.616881,0,2,13,1,9,2
14,1.422615,0,1,15,1,9,1
14,2.22171,0,1,39,2,9,1
14,1.4019,0,2,95,4,12,1
14,1.843165,1,1,18,1,10,8
14,1.495285,0,1,138,4,3,6
14,1.378895,0,3,74,4,9,3
14,1.468077,0,1,90,4,10,2
14,2.041126,0,2,11,1,12,2
14,1.692233,0,3,141,4,3,7
14,1.328057,0,1,54,3,10,2
14,1.490472,0,2,49,3,9,8
14,1.41497,0,2,119,2,1,6
14,1.382147,0,3,110,2,1,7
14,2.382591,0,2,125,3,4,5
14,1.340708,0,3,14,1,9,3
14,1.326537,0,2,71,3,12,1
14,1.299063,0,2,113,2,1,6
14,1.388841,1,2,61,3,9,1
14,1.88524,0,1,3,1,9,8
14,1.264743,0,3,68,3,11,4
14,1.781693,1,3,8,1,11,3
14,1.261261,0,3,116,2,1,7
14,1.738454,0,1,7,1,11,1
14,1.419472,0,1,55,3,11,2
14,1.426004,1,1,36,2,12,8
14,1.26559,0,3,26,2,9,4
14,1.199817,0,3,122,3,4,7
14,1.942975,0,2,70,3,12,8
14,1.22347,0,2,77,4,10,1
14,1.416189,0,3,52,3,10,4
14,2.005715,0,1,102,1,2,5
14,1.453263,0,2,23,1,12,2
14,1.354751,0,3,86,4,9,4
14,1.354371,0,3,92,4,11,4
14,1.565119,0,2,47,2,12,2
14,1.325689,0,3,9,1,11,4
14,1.368195,0,3,105,1,2,7
14,1.658313,0,2,46,2,12,2
14,1.366244,0,3,40,2,10,4
14,1.878971,0,2,41,2,10,2
14,1.299105,0,3,33,2,11,4
14,1.591462,0,1,48,2,12,1
14,1.248009,0,3,38,2,9,3
14,2.245043,0,1,91,4,11,2
14,1.424996,1,1,135,4,3,6
14,1.559898,0,2,25,2,9,2
14,1.505868,0,1,114,2,1,5
14,1.460195,0,1,103,1,2,5
14,1.434217,1,2,65,3,10,8
14,1.432338,0,2,10,1,12,2
14,1.470728,0,3,140,4,3,7
14,1.932466,0,1,108,1,2,5
14,1.573882,0,1,99,1,2,5
14,1.487683,0,3,105,1,2,7
14,1.548523,0,3,62,3,9,4
14,1.772884,0,1,72,3,12,2
14,1.332722,0,2,71,3,12,1
14,1.398521,0,3,93,4,11,3
14,1.262718,0,2,25,2,9,2
14,1.196001,0,1,78,4,10,2
14,1.876095,0,1,51,3,9,2
14,2.896163,0,1,30,2,10,1
14,1.513226,0,2,121,3,4,5
14,1.364115,0,1,54,3,10,2
14,1.26846,0,3,2,1,9,4
14,1.345976,0,2,11,1,12,2
14,1.220444,0,3,98,1,2,7
14,1.307756,0,1,66,3,10,2
14,1.318966,0,2,35,2,12,2
14,2.505688,0,3,50,3,9,3
14,1.403458,0,2,47,2,12,2
14,1.194384,0,2,94,4,12,8
14,1.203442,0,3,100,1,2,7
14,1.332101,0,1,79,4,11,2
14,1.381447,0,3,56,3,11,3
14,1.438498,0,2,41,2,10,2
14,1.491484,0,3,110,2,1,7
14,1.559931,0,1,36,2,12,8
14,1.35307,0,3,124,3,4,7
14,2.427037,0,2,133,4,3,5
14,1.416272,0,3,86,4,9,4
14,1.334199,0,3,69,3,11,3
14,1.760806,0,1,84,4,12,2
14,2.090533,0,1,90,4,10,2
14,1.668656,0,2,58,3,12,1
14,1.363043,0,2,119,2,1,6
14,1.29086,0,3,81,4,11,4
14,1.367212,0,3,76,4,10,4
14,1.520265,0,1,6,1,10,1
14,1.435626,0,3,64,3,10,3
14,1.865937,0,2,97,1,2,6
14,1.358904,0,2,37,2,9,2
14,1.305019,0,1,31,2,11,1
14,1.618843,0,3,32,2,11,3
14,1.394958,0,2,109,2,1,6
14,1.243353,0,2,34,2,12,2
14,1.208003,0,3,33,2,11,4
14,1.200949,0,2,23,1,12,2
14,1.303435,0,3,141,4,3,7
14,2.324072,0,1,111,2,1,5
14,1.339103,0,1,123,3,4,6
14,1.854258,0,1,48,2,12,1
14,1.507575,0,3,8,1,11,3
14,1.439841,0,2,22,1,12,2
14,1.643539,0,1,18,1,10,8
14,1.61824,0,2,130,3,4,5
14,1.271798,0,2,1,1,9,2
14,1.301889,0,3,28,2,10,3
14,1.321786,0,3,14,1,9,3
14,1.404453,0,3,129,3,4,7
14,1.372318,0,1,3,1,9,8
14,1.507822,0,2,137,4,3,5
14,1.455177,0,3,92,4,11,4
14,1.429845,0,1,127,3,4,6
14,1.252772,0,2,70,3,12,8
14,1.370448,0,2,61,3,9,1
14,1.475102,0,3,112,2,1,7
14,1.959122,0,1,126,3,4,6
14,1.359247,0,1,55,3,11,2
14,1.706282,0,3,80,4,11,3
14,1.365523,0,3,122,3,4,7
14,2.038501,0,2,53,3,10,1
14,1.386478,0,1,115,2,1,5
14,1.267194,0,3,57,3,11,4
14,1.44835,0,2,142,4,3,5
14,1.381675,0,2,77,4,10,1
14,1.365827,0,3,44,2,11,4
14,1.526888,0,2,89,4,10,8
14,1.56908,1,1,60,3,12,2
14,1.547422,0,2,82,4,12,1
14,1.876873,0,3,128,3,4,7
14,1.512023,0,2,59,3,12,8
14,1.627933,0,3,117,2,1,7
14,1.969868,0,3,52,3,10,4
14,1.673679,0,3,116,2,1,7
14,1.653987,0,1,12,1,12,8
14,1.922593,0,1,87,4,9,2
14,1.49943,0,1,15,1,9,1
14,2.214784,1,2,49,3,9,8
14,1.572594,0,3,104,1,2,7
14,1.277366,0,3,4,1,10,3
14,1.490586,0,3,88,4,10,3
14,1.254625,0,3,38,2,9,3
14,1.612568,0,1,7,1,11,1
14,1.42756,0,1,19,1,11,8
14,1.561289,0,2,46,2,12,2
14,1.52146,0,2,29,2,10,2
14,1.756326,0,1,132,3,4,6
14,1.596227,0,3,9,1,11,4
14,2.059403,0,1,99,1,2,5
14,1.806576,0,3,134,4,3,7
14,2.677536,1,2,73,4,9,8
14,1.785673,0,2,13,1,9,2
14,1.703817,0,2,95,4,12,1
14,1.803195,0,2,113,2,1,6
14,1.818715,0,2,5,1,10,2
14,1.736061,0,3,21,1,11,3
14,1.6414,0,2,83,4,12,8
14,1.776401,0,1,138,4,3,6
14,1.384708,0,3,26,2,9,4
14,1.761032,0,2,10,1,12,2
14,1.688861,0,1,91,4,11,2
14,1.55589,0,3,136,4,3,7
