name,rt,error,correct_key,trial,pair1,pair2,trial_types
1,3.16052,1,1,76,4,10,2
1,1.138024,1,2,18,1,10,2
1,1.357115,0,2,78,4,10,8
1,0.803233,0,2,117,2,1,6
1,1.682645,1,2,140,4,3,5
1,0.837569,0,2,61,3,9,8
1,1.113218,0,1,143,4,3,6
1,0.903728,0,2,69,3,11,8
1,1.358753,1,3,74,4,9,3
1,1.36263,0,3,15,1,9,4
1,1.27084,0,3,24,1,12,3
1,1.341078,0,1,11,1,12,1
1,1.367502,1,2,114,2,1,6
1,1.33065,1,3,72,3,12,3
1,0.773065,0,2,97,1,2,6
1,1.356846,0,3,43,2,11,3
1,2.61277,0,3,98,1,2,7
1,1.182785,0,3,62,3,9,4
1,1.87892,0,3,14,1,9,4
1,1.010816,0,2,121,3,4,5
1,1.073973,0,1,70,3,12,2
1,1.173834,0,1,77,4,10,2
1,3.077304,0,3,99,1,2,7
1,1.376649,0,1,47,2,12,8
1,1.702231,0,2,104,1,2,6
1,1.82403,1,1,125,3,4,6
1,1.970323,0,1,94,4,12,2
1,1.409282,0,2,44,2,11,2
1,1.377589,0,3,108,1,2,7
1,1.38489,0,3,127,3,4,7
1,2.625556,0,2,133,4,3,5
1,1.37407,0,1,100,1,2,5
1,1.422856,0,3,79,4,11,3
1,1.391585,0,2,116,2,1,6
1,1.311302,0,2,1,1,9,2
1,1.315137,0,3,63,3,9,3
1,2.949274,0,1,130,3,4,6
1,1.269183,1,2,42,2,10,2
1,2.312792,0,3,103,1,2,7
1,1.258342,1,2,57,3,11,1
1,1.015212,1,2,8,1,11,2
1,0.938627,1,2,30,2,10,2
1,1.176621,0,1,119,2,1,5
1,1.425602,0,2,109,2,1,6
1,1.454411,0,3,111,2,1,7
1,1.034044,0,3,36,2,12,4
1,1.455955,0,1,4,1,10,1
1,1.162006,0,1,59,3,12,2
1,1.045552,0,3,120,2,1,7
1,1.041563,1,1,58,3,12,2
1,0.829993,0,2,102,1,2,6
1,1.10796,1,1,46,2,12,1
1,0.900288,0,1,113,2,1,5
1,1.137191,0,2,25,2,9,2
1,1.166925,1,2,56,3,11,8
1,1.611974,0,3,75,4,9,4
1,1.076751,0,2,20,1,11,2
1,1.035878,0,3,115,2,1,7
1,1.13334,1,2,138,4,3,5
1,1.208008,1,2,92,4,11,1
1,1.039838,0,1,136,4,3,6
1,1.017446,0,2,141,4,3,5
1,1.403248,1,1,131,3,4,6
1,1.183829,0,1,52,3,10,2
1,1.22643,0,3,91,4,11,4
1,1.452219,0,3,19,1,11,3
1,1.62782,0,3,55,3,11,3
1,1.252901,0,3,110,2,1,7
1,1.181356,0,2,128,3,4,5
1,2.66023,1,1,71,3,12,2
1,0.788761,0,2,80,4,11,8
1,1.387004,1,3,87,4,9,3
1,0.817245,0,2,85,4,9,8
1,1.139664,0,3,139,4,3,7
1,0.93484,1,3,122,3,4,7
1,1.38583,0,3,38,2,9,4
1,1.272698,1,1,5,1,10,8
1,0.973479,0,3,60,3,12,4
1,1.258995,0,1,89,4,10,2
1,1.644664,0,1,101,1,2,5
1,1.374926,0,3,7,1,11,4
1,1.296904,0,3,27,2,9,3
1,1.401162,0,3,84,4,12,4
1,0.966399,0,1,142,4,3,6
1,1.144808,0,3,26,2,9,3
1,0.98787,0,2,105,1,2,6
1,0.557015,0,2,129,3,4,5
1,1.066305,1,1,35,2,12,1
1,1.611197,1,1,10,1,12,8
1,1.97528,1,3,132,3,4,7
1,0.685123,0,1,34,2,12,8
1,0.825801,1,1,28,2,10,1
1,1.198358,1,1,107,1,2,5
1,1.115157,1,3,67,3,11,4
1,1.147011,0,1,29,2,10,8
1,1.775411,0,1,83,4,12,2
1,0.92943,0,1,17,1,10,1
1,1.416611,0,1,40,2,10,8
1,0.720757,0,2,33,2,11,2
1,0.995331,1,2,32,2,11,2
1,0.874808,0,1,82,4,12,2
1,1.206785,0,3,86,4,9,4
1,1.498411,0,3,39,2,9,4
1,1.383024,0,1,23,1,12,8
1,1.384913,1,3,31,2,11,4
1,1.39005,1,1,95,4,12,2
1,1.145428,0,2,90,4,10,1
1,1.116212,0,2,9,1,11,2
1,1.444519,0,1,65,3,10,2
1,1.349331,0,3,3,1,9,3
1,1.288974,0,3,134,4,3,7
1,1.063882,0,1,41,2,10,1
1,1.528679,1,2,21,1,11,2
1,1.000603,0,2,73,4,9,1
1,1.06581,1,1,124,3,4,6
1,0.826214,0,2,66,3,10,1
1,0.641856,0,2,81,4,11,1
1,1.172886,0,3,135,4,3,7
1,1.181694,1,1,16,1,10,8
1,1.27022,0,1,64,3,10,2
1,1.670572,0,3,12,1,12,4
1,1.23654,0,1,118,2,1,5
1,1.159298,1,2,68,3,11,1
1,1.458469,1,3,50,3,9,3
1,0.646919,0,2,13,1,9,2
1,0.967181,0,3,144,4,3,7
1,0.824381,0,3,96,4,12,3
1,1.221883,0,1,22,1,12,1
1,0.961953,1,2,49,3,9,1
1,1.232902,0,3,48,2,12,3
1,1.027154,0,3,51,3,9,4
1,1.077435,0,2,126,3,4,5
1,0.587548,0,2,6,1,10,2
1,1.499595,1,2,45,2,11,2
1,1.117241,0,1,53,3,10,2
1,1.06657,0,3,2,1,9,3
1,1.147009,0,2,37,2,9,2
1,1.284995,0,1,88,4,10,2
1,0.796889,0,1,112,2,1,5
1,0.85235,1,2,54,3,10,8
1,0.956961,0,1,137,4,3,6
1,0.951254,1,1,106,1,2,5
1,0.982879,0,2,93,4,11,8
1,1.23809,0,3,123,3,4,7
1,1.513699,0,1,65,3,10,2
1,0.860915,0,1,29,2,10,8
1,1.085415,0,2,18,1,10,2
1,1.388021,0,1,47,2,12,8
1,1.159286,0,1,71,3,12,2
1,0.958176,1,1,46,2,12,1
1,1.24729,0,3,74,4,9,3
1,1.114962,0,3,67,3,11,4
1,1.031137,0,2,140,4,3,5
1,1.185288,0,3,132,3,4,7
1,1.291449,1,1,94,4,12,2
1,1.081695,0,1,142,4,3,6
1,1.390344,0,3,31,2,11,4
1,1.069896,0,1,82,4,12,2
1,1.220018,0,3,72,3,12,3
1,1.794316,1,3,108,1,2,7
1,1.108823,1,2,105,1,2,6
1,0.895105,0,1,5,1,10,8
1,1.201051,0,2,138,4,3,5
1,1.067861,1,3,63,3,9,3
1,1.208987,0,3,120,2,1,7
1,0.860024,0,1,28,2,10,1
1,1.083655,0,3,122,3,4,7
1,0.802042,0,2,116,2,1,6
1,0.623933,0,2,32,2,11,2
1,0.62953,0,1,101,1,2,5
1,0.755875,1,3,62,3,9,4
1,0.66919,0,1,100,1,2,5
1,0.792837,0,2,97,1,2,6
1,0.872988,0,3,134,4,3,7
1,1.192543,0,3,84,4,12,4
1,1.104623,0,3,98,1,2,7
1,0.653375,0,1,131,3,4,6
1,1.078182,0,2,102,1,2,6
1,0.581792,0,2,6,1,10,2
1,1.021714,1,3,60,3,12,4
1,0.678067,1,2,30,2,10,2
1,1.399059,0,1,76,4,10,2
1,1.017828,0,1,89,4,10,2
1,0.834955,0,1,22,1,12,1
1,0.837067,0,2,42,2,10,2
1,1.041796,0,1,40,2,10,8
1,1.275491,0,2,49,3,9,1
1,1.169775,1,3,103,1,2,7
1,1.182392,0,2,129,3,4,5
1,1.172707,1,3,55,3,11,3
1,0.712772,1,1,83,4,12,2
1,0.796178,0,2,45,2,11,2
1,1.057169,1,1,35,2,12,1
1,0.998522,0,1,143,4,3,6
1,1.857329,0,3,43,2,11,3
1,1.594665,0,3,39,2,9,4
1,0.963157,0,2,133,4,3,5
1,1.122792,0,1,11,1,12,1
1,0.869798,0,1,124,3,4,6
1,1.208653,0,1,41,2,10,1
1,0.933946,0,1,77,4,10,2
1,0.735156,0,1,17,1,10,1
1,1.093301,1,2,104,1,2,6
1,0.862447,0,2,114,2,1,6
1,1.157001,0,3,115,2,1,7
1,1.841222,1,3,12,1,12,4
1,1.271971,0,2,1,1,9,2
1,1.40502,0,3,86,4,9,4
1,0.894116,0,3,75,4,9,4
1,0.685136,0,2,68,3,11,1
1,1.312567,1,2,33,2,11,2
1,0.709325,0,2,20,1,11,2
1,1.100409,0,3,38,2,9,4
1,0.860999,0,1,70,3,12,2
1,0.826341,1,3,2,1,9,3
1,0.883141,0,1,136,4,3,6
1,1.467786,0,3,127,3,4,7
1,0.880526,1,1,53,3,10,2
1,1.523054,1,2,69,3,11,8
1,0.786025,0,2,25,2,9,2
1,0.657876,0,2,141,4,3,5
1,0.800802,1,3,51,3,9,4
1,1.326463,0,1,95,4,12,2
1,1.938509,0,3,36,2,12,4
1,1.280366,0,1,106,1,2,5
1,1.703026,0,1,4,1,10,1
1,0.890539,0,2,90,4,10,1
1,0.961316,0,3,48,2,12,3
1,2.395849,0,3,26,2,9,3
1,1.479735,0,3,111,2,1,7
1,0.904321,0,2,85,4,9,8
1,0.678609,0,2,73,4,9,1
1,0.837051,1,3,3,1,9,3
1,1.409217,1,1,137,4,3,6
1,1.512092,0,1,59,3,12,2
1,1.196576,0,2,21,1,11,2
1,1.572344,0,3,135,4,3,7
1,1.389167,0,3,139,4,3,7
1,0.923242,0,2,93,4,11,8
1,0.786122,0,2,81,4,11,1
1,1.706265,0,3,19,1,11,3
1,0.752308,0,2,13,1,9,2
1,1.293867,0,3,99,1,2,7
1,1.027215,0,3,15,1,9,4
1,1.012075,0,2,109,2,1,6
1,1.041837,1,1,88,4,10,2
1,2.233964,1,1,125,3,4,6
1,0.669667,0,2,9,1,11,2
1,1.144773,1,2,92,4,11,1
1,0.825082,0,2,37,2,9,2
1,0.990569,1,2,56,3,11,8
1,1.269357,0,1,118,2,1,5
1,0.806953,0,1,58,3,12,2
1,1.063525,1,1,23,1,12,8
1,1.267895,1,2,126,3,4,5
1,0.87374,0,2,57,3,11,1
1,0.767745,0,2,8,1,11,2
1,0.954831,0,3,79,4,11,3
1,1.072415,0,2,44,2,11,2
1,2.109571,0,3,14,1,9,4
1,1.33233,0,1,107,1,2,5
1,1.309736,0,2,117,2,1,6
1,0.968627,0,1,64,3,10,2
1,1.339843,1,1,113,2,1,5
1,0.879035,0,1,52,3,10,2
1,1.002745,0,3,7,1,11,4
1,2.424016,0,1,10,1,12,8
1,0.765594,0,1,16,1,10,8
1,0.902895,0,2,66,3,10,1
1,0.932637,1,1,130,3,4,6
1,1.052862,0,3,110,2,1,7
1,1.065384,1,2,80,4,11,8
1,1.123273,1,2,128,3,4,5
1,1.254449,0,3,87,4,9,3
1,1.308792,0,2,121,3,4,5
1,1.067871,0,3,24,1,12,3
1,1.651553,0,3,91,4,11,4
1,1.29885,1,3,96,4,12,3
1,0.885211,0,1,34,2,12,8
1,0.905204,1,2,78,4,10,8
1,1.122528,0,3,50,3,9,3
1,0.818672,1,1,112,2,1,5
1,1.114593,0,1,119,2,1,5
1,0.983783,0,3,27,2,9,3
1,0.92083,0,3,144,4,3,7
1,1.410642,0,3,123,3,4,7
1,1.57189,0,2,54,3,10,8
1,0.831706,0,2,61,3,9,8
1,1.601205,0,3,98,1,2,7
1,1.093682,0,2,68,3,11,1
1,1.057388,0,1,76,4,10,2
1,0.792679,0,2,20,1,11,2
1,1.053556,0,3,62,3,9,4
1,1.004744,0,3,72,3,12,3
1,1.0964,0,3,48,2,12,3
1,0.781027,0,2,9,1,11,2
1,0.758561,0,2,66,3,10,1
1,1.132426,0,1,130,3,4,6
1,1.045358,0,2,92,4,11,1
1,1.15247,0,1,11,1,12,1
1,0.880887,0,2,105,1,2,6
1,2.120745,1,3,127,3,4,7
1,1.058497,1,1,52,3,10,2
1,0.890296,0,2,56,3,11,8
1,0.923487,1,2,93,4,11,8
1,0.934876,0,2,129,3,4,5
1,1.271191,0,3,74,4,9,3
1,1.426029,0,3,7,1,11,4
1,1.944387,1,1,131,3,4,6
1,1.215631,0,3,135,4,3,7
1,1.134602,0,2,126,3,4,5
1,0.847708,0,1,82,4,12,2
1,1.564175,0,2,57,3,11,1
1,0.747942,1,3,12,1,12,4
1,0.720961,0,1,58,3,12,2
1,0.594642,0,1,41,2,10,1
1,0.606877,0,2,78,4,10,8
1,0.616725,0,2,109,2,1,6
1,0.546587,0,2,33,2,11,2
1,0.801881,0,3,122,3,4,7
1,0.874413,0,3,79,4,11,3
1,0.805952,0,2,117,2,1,6
1,1.079725,0,3,91,4,11,4
1,1.06293,0,3,103,1,2,7
1,0.749121,0,2,141,4,3,5
1,0.820717,0,2,1,1,9,2
1,0.71428,0,2,13,1,9,2
1,1.215725,0,1,34,2,12,8
1,0.948673,0,1,95,4,12,2
1,0.943611,0,1,137,4,3,6
1,0.710413,0,2,37,2,9,2
1,0.874904,0,1,53,3,10,2
1,1.029649,0,3,75,4,9,4
1,0.759,0,2,128,3,4,5
1,0.736596,0,1,28,2,10,1
1,0.729461,1,2,104,1,2,6
1,0.926378,0,2,21,1,11,2
1,0.836406,0,2,102,1,2,6
1,0.716279,0,2,81,4,11,1
1,0.681482,0,2,61,3,9,8
1,0.856809,0,1,143,4,3,6
1,0.926964,0,2,42,2,10,2
1,1.10417,1,3,134,4,3,7
1,0.792817,1,1,124,3,4,6
1,1.178317,0,3,36,2,12,4
1,0.817807,0,1,136,4,3,6
1,1.016883,0,3,31,2,11,4
1,0.757384,0,2,32,2,11,2
1,0.587497,0,2,6,1,10,2
1,0.71873,0,3,55,3,11,3
1,0.777571,0,2,121,3,4,5
1,0.555731,0,1,83,4,12,2
1,0.661057,1,3,120,2,1,7
1,0.659966,1,1,70,3,12,2
1,1.174055,0,1,101,1,2,5
1,1.496001,0,3,63,3,9,3
1,1.351456,0,3,132,3,4,7
1,0.805436,0,1,17,1,10,1
1,0.666643,0,1,10,1,12,8
1,0.88581,1,3,15,1,9,4
1,1.2799,1,1,46,2,12,1
1,1.291192,1,3,139,4,3,7
1,0.87875,0,1,142,4,3,6
1,1.23718,0,2,18,1,10,2
1,0.765574,1,2,97,1,2,6
1,1.135729,1,3,67,3,11,4
1,0.840832,1,1,118,2,1,5
1,1.131087,0,1,64,3,10,2
1,1.21991,0,3,86,4,9,4
1,1.481021,1,2,54,3,10,8
1,1.707451,0,2,80,4,11,8
1,0.749837,0,2,73,4,9,1
1,1.243239,1,1,100,1,2,5
1,1.064683,0,2,8,1,11,2
1,1.225284,0,3,87,4,9,3
1,0.964764,0,1,125,3,4,6
1,1.090834,0,2,44,2,11,2
1,0.995673,0,3,24,1,12,3
1,1.110123,0,3,51,3,9,4
1,1.543487,0,3,2,1,9,3
1,1.263414,0,1,107,1,2,5
1,1.547595,0,3,99,1,2,7
1,1.238197,0,2,116,2,1,6
1,1.684232,0,3,3,1,9,3
1,1.45173,0,3,14,1,9,4
1,0.96652,0,2,138,4,3,5
1,1.24993,0,1,71,3,12,2
1,0.815383,0,1,119,2,1,5
1,1.066568,0,3,39,2,9,4
1,0.814393,0,2,69,3,11,8
1,1.203595,1,3,38,2,9,4
1,1.090198,0,1,113,2,1,5
1,0.817435,0,1,77,4,10,2
1,0.964949,0,3,96,4,12,3
1,0.814603,0,3,84,4,12,4
1,1.004727,0,2,30,2,10,2
1,1.012422,0,1,22,1,12,1
1,0.842928,0,1,23,1,12,8
1,0.863573,1,2,25,2,9,2
1,1.021029,1,3,110,2,1,7
1,1.755877,0,1,89,4,10,2
1,1.132089,0,3,43,2,11,3
1,1.161963,0,3,144,4,3,7
1,0.987655,1,3,27,2,9,3
1,0.964888,0,1,40,2,10,8
1,1.001773,0,3,115,2,1,7
1,1.127545,0,1,4,1,10,1
1,0.992746,1,2,90,4,10,1
1,1.100994,1,2,45,2,11,2
1,1.133023,0,3,26,2,9,3
1,0.796052,0,2,85,4,9,8
1,0.521562,0,2,133,4,3,5
1,0.728792,0,1,94,4,12,2
1,1.108526,0,1,47,2,12,8
1,0.741914,0,1,16,1,10,8
1,0.89439,0,3,108,1,2,7
1,1.226449,0,1,65,3,10,2
1,0.727206,0,1,29,2,10,8
1,0.946552,0,2,49,3,9,1
1,1.058187,0,2,140,4,3,5
1,1.127031,1,3,123,3,4,7
1,1.286176,0,1,5,1,10,8
1,0.938509,0,1,112,2,1,5
1,1.153245,0,3,50,3,9,3
1,1.093653,0,3,19,1,11,3
1,0.994994,0,1,88,4,10,2
1,0.725527,0,2,114,2,1,6
1,0.899208,1,3,111,2,1,7
1,0.856137,0,3,60,3,12,4
1,0.961413,1,1,59,3,12,2
1,2.240648,1,1,35,2,12,1
1,1.020734,0,1,106,1,2,5
1,1.053943,0,2,54,3,10,8
1,0.728492,0,1,130,3,4,6
1,0.785871,0,2,44,2,11,2
1,1.079079,0,3,3,1,9,3
1,1.06494,1,3,7,1,11,4
1,0.847958,0,2,105,1,2,6
1,1.183047,1,3,115,2,1,7
1,0.893626,0,1,23,1,12,8
1,0.681948,0,2,97,1,2,6
1,0.859764,0,3,12,1,12,4
1,0.634806,0,2,21,1,11,2
1,0.758411,0,1,41,2,10,1
1,0.886415,0,2,102,1,2,6
1,0.669459,0,2,1,1,9,2
1,0.644015,0,2,73,4,9,1
1,0.616938,1,1,46,2,12,1
1,0.790922,0,3,91,4,11,4
1,0.729559,0,1,94,4,12,2
1,0.668345,1,1,70,3,12,2
1,0.874489,1,3,51,3,9,4
1,0.873694,0,3,31,2,11,4
1,0.614201,0,1,112,2,1,5
1,0.756228,0,1,137,4,3,6
1,0.982561,0,1,16,1,10,8
1,0.847861,1,3,111,2,1,7
1,1.270936,0,3,67,3,11,4
1,0.840007,0,1,143,4,3,6
1,0.601696,0,2,8,1,11,2
1,0.751454,1,3,122,3,4,7
1,1.404673,0,3,63,3,9,3
1,1.141304,0,3,50,3,9,3
1,1.004274,0,3,26,2,9,3
1,0.779618,0,3,99,1,2,7
1,0.588295,0,2,68,3,11,1
1,0.624102,0,1,124,3,4,6
1,1.31867,0,3,110,2,1,7
1,0.695339,0,2,61,3,9,8
1,0.712634,1,2,30,2,10,2
1,0.771073,1,2,85,4,9,8
1,0.894853,0,1,28,2,10,1
1,0.678406,0,2,128,3,4,5
1,0.759814,0,1,83,4,12,2
1,0.727114,0,2,126,3,4,5
1,1.04629,0,3,24,1,12,3
1,1.042163,0,3,75,4,9,4
1,0.994656,0,1,64,3,10,2
1,1.047369,0,1,77,4,10,2
1,0.675747,0,2,80,4,11,8
1,0.696617,1,1,10,1,12,8
1,1.522869,1,3,39,2,9,4
1,0.860718,0,2,81,4,11,1
1,1.124165,0,1,4,1,10,1
1,0.825975,0,2,69,3,11,8
1,0.772001,0,2,32,2,11,2
1,0.946624,1,1,118,2,1,5
1,0.882445,0,1,5,1,10,8
1,0.860327,1,2,42,2,10,2
1,1.088488,0,3,74,4,9,3
1,1.648804,0,1,17,1,10,1
1,1.069053,0,2,56,3,11,8
1,1.667888,0,1,125,3,4,6
1,1.054478,1,3,19,1,11,3
1,0.800404,0,2,141,4,3,5
1,1.068589,0,1,136,4,3,6
1,0.961535,0,3,27,2,9,3
1,0.728649,0,2,140,4,3,5
1,1.071379,0,3,103,1,2,7
1,0.853235,1,3,38,2,9,4
1,1.086165,0,2,37,2,9,2
1,1.14244,1,3,135,4,3,7
1,0.735457,0,2,9,1,11,2
1,0.755153,0,3,108,1,2,7
1,1.518328,0,3,62,3,9,4
1,0.730383,0,1,82,4,12,2
1,0.824588,0,2,18,1,10,2
1,1.219212,1,1,88,4,10,2
1,0.74032,0,2,90,4,10,1
1,0.591431,0,1,71,3,12,2
1,1.02691,0,3,98,1,2,7
1,0.75354,0,1,100,1,2,5
1,0.756719,0,2,33,2,11,2
1,0.954011,0,2,114,2,1,6
1,0.99082,0,2,117,2,1,6
1,0.557833,0,2,13,1,9,2
1,0.700382,0,1,59,3,12,2
1,0.675579,1,2,78,4,10,8
1,0.620379,1,3,15,1,9,4
1,0.52806,0,1,47,2,12,8
1,0.668619,0,2,129,3,4,5
1,0.537572,0,2,45,2,11,2
1,0.692962,0,2,66,3,10,1
1,0.530526,0,2,6,1,10,2
1,0.54927,1,3,134,4,3,7
1,0.680338,0,2,104,1,2,6
1,0.716479,0,3,139,4,3,7
1,0.747004,0,2,92,4,11,1
1,0.805971,0,1,35,2,12,1
1,0.649209,1,3,132,3,4,7
1,1.136902,0,3,120,2,1,7
1,0.636772,0,2,133,4,3,5
1,0.731045,1,1,40,2,10,8
1,1.082128,0,1,101,1,2,5
1,1.250176,0,2,121,3,4,5
1,1.094648,0,1,58,3,12,2
1,1.294412,0,3,87,4,9,3
1,0.819896,0,3,14,1,9,4
1,0.981907,0,1,22,1,12,1
1,0.962307,0,3,72,3,12,3
1,0.700698,0,2,20,1,11,2
1,0.66691,0,1,95,4,12,2
1,1.276553,0,1,53,3,10,2
1,0.998581,0,3,2,1,9,3
1,0.866132,0,1,34,2,12,8
1,0.627857,0,1,89,4,10,2
1,0.776479,0,3,48,2,12,3
1,0.792955,0,1,131,3,4,6
1,0.975131,0,1,29,2,10,8
1,0.588359,0,1,113,2,1,5
1,0.707572,0,3,84,4,12,4
1,1.272981,1,1,107,1,2,5
1,1.210734,1,3,96,4,12,3
1,0.585751,0,2,109,2,1,6
1,0.649424,0,3,60,3,12,4
1,0.502394,1,3,79,4,11,3
1,1.032752,1,1,52,3,10,2
1,0.991613,0,1,142,4,3,6
1,0.993903,0,3,123,3,4,7
1,0.84203,1,3,86,4,9,4
1,0.92243,0,1,119,2,1,5
1,0.917078,1,3,144,4,3,7
1,0.534018,0,1,106,1,2,5
1,0.668736,0,1,11,1,12,1
1,0.825453,1,2,25,2,9,2
1,0.768902,1,3,55,3,11,3
1,0.568315,0,2,93,4,11,8
1,0.616176,0,2,49,3,9,1
1,0.614763,1,3,127,3,4,7
1,0.893235,0,1,65,3,10,2
1,0.950894,0,3,43,2,11,3
1,0.808526,1,1,76,4,10,2
1,1.00596,0,2,116,2,1,6
1,1.020435,0,3,36,2,12,4
1,1.056206,1,2,57,3,11,1
1,0.750595,1,2,138,4,3,5
2,2.09844,0,3,59,3,12,3
2,2.222434,1,1,142,4,3,6
2,1.422209,0,2,28,2,10,2
2,1.931113,1,1,38,2,9,8
2,1.791924,0,3,72,3,12,4
2,1.445502,0,1,10,1,12,1
2,2.090686,0,3,23,1,12,4
2,1.48182,0,3,144,4,3,7
2,1.424047,0,3,131,3,4,7
2,1.811297,0,3,11,1,12,3
2,1.983015,0,1,46,2,12,8
2,1.952827,1,1,32,2,11,8
2,1.897949,0,2,109,2,1,6
2,1.00364,0,2,73,4,9,1
2,1.142005,0,2,5,1,10,2
2,1.081922,0,1,122,3,4,6
2,2.285536,0,3,47,2,12,4
2,2.23075,0,1,115,2,1,5
2,1.662196,0,1,22,1,12,8
2,2.892759,1,3,35,2,12,3
2,1.164458,0,2,101,1,2,6
2,0.988576,0,2,133,4,3,5
2,1.410129,1,3,15,1,9,4
2,1.343251,0,1,34,2,12,1
2,1.300076,0,2,40,2,10,2
2,1.683512,1,3,102,1,2,7
2,1.352313,0,1,19,1,11,1
2,1.830115,1,2,125,3,4,5
2,2.497509,1,3,132,3,4,7
2,1.48175,0,2,16,1,10,2
2,3.212505,0,3,48,2,12,3
2,1.051935,0,2,69,3,11,1
2,1.048333,0,2,1,1,9,2
2,1.529987,1,3,24,1,12,3
2,2.034341,0,3,42,2,10,3
2,1.899642,1,3,120,2,1,7
2,1.361119,0,1,20,1,11,1
2,1.319921,0,1,139,4,3,6
2,0.923256,0,2,117,2,1,6
2,1.498646,0,1,130,3,4,6
2,1.057979,0,1,26,2,9,1
2,1.172785,1,2,61,3,9,8
2,1.359645,0,1,92,4,11,2
2,0.899665,0,2,100,1,2,6
2,1.019244,0,1,94,4,12,2
2,0.83656,0,1,134,4,3,6
2,2.372044,1,2,76,4,10,8
2,0.879118,0,1,98,1,2,5
2,1.697107,0,1,68,3,11,2
2,1.067097,0,1,104,1,2,5
2,2.491623,0,3,95,4,12,4
2,1.882579,0,2,88,4,10,1
2,0.936747,0,2,9,1,11,2
2,1.691704,0,3,54,3,10,4
2,0.996841,0,1,55,3,11,2
2,1.844769,0,1,110,2,1,5
2,1.542126,0,3,66,3,10,3
2,1.047193,0,2,57,3,11,8
2,1.70024,0,3,30,2,10,4
2,1.099814,0,1,128,3,4,6
2,1.795182,0,1,67,3,11,2
2,2.366753,0,3,123,3,4,7
2,1.218553,0,1,58,3,12,2
2,1.437555,0,2,33,2,11,2
2,1.676914,1,2,49,3,9,1
2,2.957926,0,2,52,3,10,8
2,1.196211,0,1,103,1,2,5
2,1.778714,1,3,3,1,9,3
2,1.286924,0,2,17,1,10,2
2,1.681208,0,1,56,3,11,2
2,1.475057,0,3,6,1,10,4
2,1.114884,0,2,141,4,3,5
2,2.633602,1,3,143,4,3,7
2,1.530213,0,3,71,3,12,4
2,1.711794,0,2,29,2,10,2
2,1.471913,0,1,43,2,11,1
2,1.415448,0,3,107,1,2,7
2,1.679152,0,2,53,3,10,1
2,1.328108,0,1,70,3,12,2
2,2.530932,0,3,96,4,12,4
2,2.330067,0,3,138,4,3,7
2,1.687747,0,1,80,4,11,2
2,1.943902,1,3,78,4,10,4
2,3.421936,0,1,8,1,11,8
2,1.205499,0,2,64,3,10,1
2,1.461807,0,1,7,1,11,8
2,1.287095,0,2,13,1,9,2
2,0.860766,0,2,25,2,9,2
2,0.707414,0,2,121,3,4,5
2,1.478037,0,3,60,3,12,3
2,1.091204,0,1,31,2,11,8
2,1.40501,0,3,36,2,12,4
2,1.327538,0,3,63,3,9,3
2,1.41226,0,3,84,4,12,3
2,1.242618,0,1,2,1,9,1
2,1.444177,0,3,12,1,12,4
2,1.015361,0,1,82,4,12,2
2,1.459043,0,3,27,2,9,3
2,1.205123,0,2,105,1,2,6
2,0.775766,0,2,81,4,11,8
2,1.388582,0,1,44,2,11,1
2,1.44783,0,3,51,3,9,4
2,1.136567,1,3,39,2,9,4
2,1.203919,0,2,4,1,10,2
2,2.457795,1,2,89,4,10,8
2,1.248266,0,1,91,4,11,2
2,1.773684,0,3,114,2,1,7
2,0.92537,0,2,129,3,4,5
2,1.409538,0,3,87,4,9,3
2,1.190853,0,2,97,1,2,6
2,0.828064,0,2,113,2,1,6
2,1.904991,0,2,93,4,11,1
2,0.896842,0,2,112,2,1,6
2,3.182465,1,2,77,4,10,1
2,1.279338,0,1,86,4,9,2
2,1.232211,0,2,137,4,3,5
2,1.563135,0,3,111,2,1,7
2,1.318242,0,1,127,3,4,6
2,1.235669,0,1,116,2,1,5
2,1.199972,0,2,136,4,3,5
2,1.396619,0,1,50,3,9,2
2,1.530213,0,3,119,2,1,7
2,1.460177,1,2,21,1,11,2
2,1.569026,0,1,106,1,2,5
2,1.923926,0,3,75,4,9,4
2,1.188249,0,1,74,4,9,2
2,1.565594,0,2,41,2,10,2
2,0.863602,0,2,85,4,9,8
2,1.084202,0,1,62,3,9,2
2,0.9413,0,1,118,2,1,5
2,1.371365,0,3,126,3,4,7
2,1.951452,0,3,83,4,12,3
2,2.297632,0,1,140,4,3,6
2,1.146995,0,1,14,1,9,8
2,1.66548,0,3,99,1,2,7
2,2.303751,1,3,18,1,10,3
2,2.259636,0,3,135,4,3,7
2,1.775853,0,2,37,2,9,2
2,1.799159,1,3,108,1,2,7
2,1.465552,0,2,45,2,11,2
2,1.542378,0,2,65,3,10,8
2,1.40173,0,1,79,4,11,2
2,1.169393,0,2,124,3,4,5
2,1.357801,0,3,90,4,10,3
2,2.005638,0,3,83,4,12,3
2,1.653408,1,1,31,2,11,8
2,1.200688,0,3,144,4,3,7
2,1.944993,0,3,78,4,10,4
2,0.905909,0,2,61,3,9,8
2,1.34404,0,3,60,3,12,3
2,1.499085,1,3,18,1,10,3
2,0.877407,0,2,100,1,2,6
2,0.808817,0,2,81,4,11,8
2,1.450993,1,3,47,2,12,4
2,1.108862,1,3,11,1,12,3
2,1.433601,0,1,92,4,11,2
2,0.783254,0,1,103,1,2,5
2,1.455562,0,3,87,4,9,3
2,1.47973,0,3,119,2,1,7
2,2.620344,1,2,64,3,10,1
2,1.483627,0,3,114,2,1,7
2,1.40858,0,3,24,1,12,3
2,1.095137,1,2,57,3,11,8
2,1.307826,0,1,38,2,9,8
2,1.404164,0,3,12,1,12,4
2,1.056729,0,3,111,2,1,7
2,1.148302,0,1,130,3,4,6
2,0.848578,0,1,26,2,9,1
2,1.676213,0,1,20,1,11,1
2,1.697006,0,3,132,3,4,7
2,1.935722,0,3,143,4,3,7
2,0.899665,0,1,118,2,1,5
2,2.021714,1,3,107,1,2,7
2,1.982601,0,1,104,1,2,5
2,1.151721,0,2,125,3,4,5
2,1.381981,0,3,108,1,2,7
2,1.197491,0,2,117,2,1,6
2,1.119594,0,1,68,3,11,2
2,1.436169,1,1,74,4,9,2
2,1.444389,0,3,96,4,12,4
2,0.991455,0,2,40,2,10,2
2,0.893798,0,1,8,1,11,8
2,1.350226,0,2,21,1,11,2
2,0.933987,0,2,69,3,11,1
2,1.211118,0,2,85,4,9,8
2,1.248993,1,1,7,1,11,8
2,1.369346,0,3,75,4,9,4
2,1.227013,0,3,54,3,10,4
2,0.959159,0,3,102,1,2,7
2,1.366039,0,1,62,3,9,2
2,1.530276,0,2,9,1,11,2
2,1.172701,0,2,49,3,9,1
2,0.97045,0,2,1,1,9,2
2,1.08863,0,1,32,2,11,8
2,0.833354,0,2,97,1,2,6
2,1.165695,1,3,138,4,3,7
2,0.891238,0,1,46,2,12,8
2,1.308881,0,1,115,2,1,5
2,1.051545,0,2,25,2,9,2
2,1.690149,0,3,23,1,12,4
2,1.656459,0,1,134,4,3,6
2,1.368371,0,3,30,2,10,4
2,1.229303,0,2,101,1,2,6
2,0.820837,0,2,65,3,10,8
2,1.14487,0,1,139,4,3,6
2,1.278092,0,3,90,4,10,3
2,1.194777,0,1,34,2,12,1
2,1.758523,0,2,16,1,10,2
2,1.250687,0,1,128,3,4,6
2,1.442964,0,3,35,2,12,3
2,1.787733,0,1,58,3,12,2
2,1.588753,0,1,127,3,4,6
2,1.113067,0,2,45,2,11,2
2,1.504967,0,1,10,1,12,1
2,0.928159,0,2,105,1,2,6
2,1.525724,1,3,84,4,12,3
2,1.164995,0,2,124,3,4,5
2,1.507303,0,3,72,3,12,4
2,1.510494,0,3,66,3,10,3
2,0.750123,0,2,141,4,3,5
2,1.344006,0,3,15,1,9,4
2,1.173121,0,1,70,3,12,2
2,1.717175,0,3,6,1,10,4
2,1.103867,0,2,113,2,1,6
2,0.884986,0,2,121,3,4,5
2,1.243885,0,3,27,2,9,3
2,0.910035,0,2,13,1,9,2
2,0.978392,0,1,82,4,12,2
2,0.935233,0,2,41,2,10,2
2,0.808469,0,2,133,4,3,5
2,0.862399,0,1,122,3,4,6
2,0.72084,0,1,2,1,9,1
2,1.276642,1,1,116,2,1,5
2,1.188482,0,1,106,1,2,5
2,1.065949,0,2,29,2,10,2
2,1.255641,1,1,67,3,11,2
2,0.920665,0,2,17,1,10,2
2,1.22892,0,3,71,3,12,4
2,0.935509,0,2,112,2,1,6
2,1.163735,0,3,63,3,9,3
2,1.088507,0,1,19,1,11,1
2,1.042106,0,3,135,4,3,7
2,1.042959,0,3,36,2,12,4
2,0.981289,0,1,22,1,12,8
2,1.6044,0,2,137,4,3,5
2,1.061661,0,3,95,4,12,4
2,1.206093,0,2,73,4,9,1
2,0.8046,0,2,89,4,10,8
2,1.143237,0,1,142,4,3,6
2,0.84338,0,2,5,1,10,2
2,1.470818,0,2,129,3,4,5
2,1.483255,0,1,44,2,11,1
2,1.332473,0,3,123,3,4,7
2,1.228242,0,1,50,3,9,2
2,1.398176,0,1,91,4,11,2
2,0.841009,0,1,56,3,11,2
2,0.767223,0,1,79,4,11,2
2,2.183909,0,3,126,3,4,7
2,1.121593,0,1,98,1,2,5
2,1.878424,1,3,42,2,10,3
2,1.16079,0,3,131,3,4,7
2,1.318546,0,2,33,2,11,2
2,1.063651,0,1,14,1,9,8
2,1.595769,0,3,3,1,9,3
2,0.881205,0,2,88,4,10,1
2,0.75286,0,2,136,4,3,5
2,0.773138,0,2,93,4,11,1
2,1.00428,0,1,43,2,11,1
2,1.078799,0,3,39,2,9,4
2,1.128631,0,3,48,2,12,3
2,1.221144,0,1,94,4,12,2
2,1.644236,0,3,120,2,1,7
2,1.295161,1,2,109,2,1,6
2,1.40699,1,2,53,3,10,1
2,1.294854,0,3,59,3,12,3
2,1.200405,0,2,28,2,10,2
2,1.589903,0,3,51,3,9,4
2,1.499189,1,1,86,4,9,2
2,1.266555,1,1,55,3,11,2
2,1.110993,0,1,140,4,3,6
2,0.926221,0,1,80,4,11,2
2,1.330827,0,1,110,2,1,5
2,1.753468,0,3,99,1,2,7
2,1.079569,0,2,4,1,10,2
2,0.737861,0,2,52,3,10,8
2,1.224842,0,2,77,4,10,1
2,1.472653,0,2,76,4,10,8
2,2.328937,1,2,37,2,9,2
2,1.253318,0,2,37,2,9,2
2,1.265145,0,1,98,1,2,5
2,1.26098,0,2,81,4,11,8
2,0.927487,0,2,109,2,1,6
2,1.026621,0,1,70,3,12,2
2,0.827169,0,2,69,3,11,1
2,1.110851,0,3,54,3,10,4
2,0.94653,0,1,32,2,11,8
2,0.768178,0,2,33,2,11,2
2,0.873782,0,1,34,2,12,1
2,1.135277,0,1,43,2,11,1
2,0.844011,0,1,58,3,12,2
2,1.08022,0,3,51,3,9,4
2,1.253661,0,3,84,4,12,3
2,0.841035,0,2,117,2,1,6
2,1.166395,0,3,96,4,12,4
2,0.986391,0,3,90,4,10,3
2,0.81116,0,3,108,1,2,7
2,0.719578,0,2,21,1,11,2
2,0.859892,0,1,8,1,11,8
2,0.935372,0,2,16,1,10,2
2,0.854187,0,1,38,2,9,8
2,1.508644,1,1,128,3,4,6
2,1.155397,0,1,94,4,12,2
2,0.930477,1,2,1,1,9,2
2,0.849011,0,2,105,1,2,6
2,1.068764,0,2,13,1,9,2
2,0.816873,0,1,92,4,11,2
2,0.681252,0,2,52,3,10,8
2,1.297198,0,1,14,1,9,8
2,1.05891,0,1,74,4,9,2
2,0.863353,0,2,133,4,3,5
2,0.907826,0,1,46,2,12,8
2,0.818588,0,2,64,3,10,1
2,1.047085,0,2,41,2,10,2
2,0.860022,0,2,61,3,9,8
2,0.784319,0,1,55,3,11,2
2,1.151553,0,3,12,1,12,4
2,1.0531,0,1,31,2,11,8
2,0.72913,0,2,101,1,2,6
2,1.131607,0,3,71,3,12,4
2,1.141984,0,3,18,1,10,3
2,1.027853,0,1,44,2,11,1
2,0.992923,0,3,143,4,3,7
2,0.790627,0,2,25,2,9,2
2,0.683801,0,2,29,2,10,2
2,0.910682,0,1,91,4,11,2
2,0.768398,0,2,77,4,10,1
2,0.896384,1,1,2,1,9,1
2,0.840253,0,1,10,1,12,1
2,0.760258,0,1,50,3,9,2
2,0.770842,0,1,86,4,9,2
2,1.101952,0,2,137,4,3,5
2,1.191254,0,3,132,3,4,7
2,0.73685,0,2,89,4,10,8
2,1.502299,1,1,140,4,3,6
2,1.189745,0,3,66,3,10,3
2,1.147847,0,3,144,4,3,7
2,1.209729,1,1,26,2,9,1
2,0.841763,0,2,49,3,9,1
2,1.108178,1,1,127,3,4,6
2,0.982953,0,1,118,2,1,5
2,1.043068,0,3,78,4,10,4
2,0.936279,0,3,63,3,9,3
2,0.976275,0,1,79,4,11,2
2,1.165791,0,1,110,2,1,5
2,1.325303,0,3,11,1,12,3
2,0.991749,0,3,24,1,12,3
2,0.909943,0,2,65,3,10,8
2,1.068998,0,1,62,3,9,2
2,1.037193,0,3,119,2,1,7
2,1.115779,0,3,111,2,1,7
2,0.855316,0,2,113,2,1,6
2,0.973631,0,3,135,4,3,7
2,0.853029,0,3,15,1,9,4
2,0.788002,0,2,121,3,4,5
2,1.882301,0,1,139,4,3,6
2,0.925783,0,3,59,3,12,3
2,0.966404,0,1,82,4,12,2
2,1.330213,0,1,20,1,11,1
2,1.079507,0,1,67,3,11,2
2,1.01228,0,3,120,2,1,7
2,1.03791,0,3,126,3,4,7
2,0.901213,0,3,36,2,12,4
2,0.894484,0,2,40,2,10,2
2,1.236853,0,2,112,2,1,6
2,0.881416,0,3,39,2,9,4
2,1.027122,0,3,83,4,12,3
2,1.091452,0,3,47,2,12,4
2,1.193359,1,3,107,1,2,7
2,0.836118,0,1,134,4,3,6
2,1.222916,0,2,85,4,9,8
2,1.070312,0,3,114,2,1,7
2,1.138175,0,1,130,3,4,6
2,0.963834,0,2,5,1,10,2
2,1.33497,0,1,122,3,4,6
2,1.126176,0,3,138,4,3,7
2,1.093486,1,3,123,3,4,7
2,0.943632,0,3,75,4,9,4
2,1.106651,0,3,42,2,10,3
2,1.174053,0,1,106,1,2,5
2,1.077109,0,3,48,2,12,3
2,1.043999,0,1,68,3,11,2
2,1.159923,0,2,97,1,2,6
2,1.325655,0,2,136,4,3,5
2,0.867852,0,2,4,1,10,2
2,0.786504,0,2,45,2,11,2
2,1.054401,0,3,87,4,9,3
2,0.792906,0,2,141,4,3,5
2,0.924424,0,1,115,2,1,5
2,1.288386,0,1,22,1,12,8
2,1.252306,0,2,125,3,4,5
2,1.208199,0,1,116,2,1,5
2,1.423834,0,2,53,3,10,1
2,1.439138,0,3,30,2,10,4
2,0.986916,0,1,104,1,2,5
2,1.341658,0,3,72,3,12,4
2,0.866765,0,2,17,1,10,2
2,1.221119,0,2,88,4,10,1
2,1.214141,0,3,95,4,12,4
2,1.154291,0,3,6,1,10,4
2,1.509792,1,2,93,4,11,1
2,1.076943,0,3,99,1,2,7
2,0.954953,0,1,7,1,11,8
2,1.42968,1,3,131,3,4,7
2,1.299982,0,2,57,3,11,8
2,0.693891,0,2,28,2,10,2
2,0.876115,0,1,103,1,2,5
2,0.890881,0,2,100,1,2,6
2,0.963305,0,1,80,4,11,2
2,0.709999,0,1,56,3,11,2
2,1.213995,0,3,35,2,12,3
2,0.956459,0,2,73,4,9,1
2,1.182768,0,3,60,3,12,3
2,2.12513,0,3,102,1,2,7
2,1.005024,0,3,3,1,9,3
2,0.888325,0,2,129,3,4,5
2,0.906083,0,3,23,1,12,4
2,1.401539,0,3,27,2,9,3
2,1.158037,0,2,124,3,4,5
2,0.996509,0,2,9,1,11,2
2,0.739659,0,2,76,4,10,8
2,1.142262,0,1,142,4,3,6
2,1.44744,0,1,19,1,11,1
2,0.702616,0,2,49,3,9,1
2,0.884767,0,2,124,3,4,5
2,0.737349,0,2,125,3,4,5
2,1.213134,0,1,19,1,11,1
2,0.810884,0,1,31,2,11,8
2,1.480879,0,1,10,1,12,1
2,1.136969,0,3,114,2,1,7
2,1.036774,0,1,62,3,9,2
2,1.303351,0,3,72,3,12,4
2,1.113752,0,3,6,1,10,4
2,0.898969,0,1,2,1,9,1
2,1.319886,0,3,96,4,12,4
2,0.802647,0,1,20,1,11,1
2,1.182298,0,1,38,2,9,8
2,0.944761,1,3,47,2,12,4
2,0.914309,0,1,14,1,9,8
2,1.055253,0,3,71,3,12,4
2,1.158609,1,3,143,4,3,7
2,1.743662,1,1,140,4,3,6
2,0.997411,0,1,32,2,11,8
2,1.104012,0,2,40,2,10,2
2,0.69641,0,2,33,2,11,2
2,0.841208,0,1,134,4,3,6
2,0.76742,0,1,58,3,12,2
2,1.983215,0,2,85,4,9,8
2,0.930891,0,2,137,4,3,5
2,0.7817,0,2,88,4,10,1
2,1.12646,0,3,24,1,12,3
2,0.921139,0,1,68,3,11,2
2,1.630219,0,2,41,2,10,2
2,0.813425,0,2,136,4,3,5
2,0.845888,0,2,133,4,3,5
2,0.775918,0,2,141,4,3,5
2,0.795805,0,1,122,3,4,6
2,0.78108,0,2,65,3,10,8
2,1.004326,0,3,135,4,3,7
2,0.858531,0,3,99,1,2,7
2,0.891302,0,3,132,3,4,7
2,0.742152,0,2,57,3,11,8
2,0.868672,0,3,63,3,9,3
2,1.169262,0,1,56,3,11,2
2,1.40811,1,1,118,2,1,5
2,1.390973,0,2,21,1,11,2
2,2.203508,0,1,92,4,11,2
2,0.799008,0,1,79,4,11,2
2,0.932173,0,3,60,3,12,3
2,1.380378,0,3,66,3,10,3
2,0.903185,0,2,73,4,9,1
2,0.785905,0,2,9,1,11,2
2,0.925095,0,2,29,2,10,2
2,0.764226,0,2,17,1,10,2
2,1.108332,0,2,105,1,2,6
2,2.069976,0,1,34,2,12,1
2,0.720112,0,2,129,3,4,5
2,1.440713,0,3,108,1,2,7
2,2.543927,0,3,15,1,9,4
2,0.75766,0,2,52,3,10,8
2,0.94694,0,3,35,2,12,3
2,1.249356,1,2,53,3,10,1
2,0.878934,0,1,7,1,11,8
2,0.885458,0,1,91,4,11,2
2,0.776444,0,2,16,1,10,2
2,0.604741,0,2,45,2,11,2
2,1.110715,0,1,142,4,3,6
2,0.719072,0,1,50,3,9,2
2,1.099651,0,3,144,4,3,7
2,0.787297,0,2,93,4,11,1
2,0.959549,0,1,46,2,12,8
2,1.403046,1,3,11,1,12,3
2,1.370887,1,1,115,2,1,5
2,0.964262,0,3,12,1,12,4
2,1.075588,0,3,51,3,9,4
2,0.823059,0,2,76,4,10,8
2,0.725824,0,2,100,1,2,6
2,0.885041,0,2,5,1,10,2
2,0.908719,0,1,44,2,11,1
2,1.232465,0,2,109,2,1,6
2,1.027213,0,2,1,1,9,2
2,0.748156,0,2,112,2,1,6
2,0.891048,0,3,83,4,12,3
2,0.924824,0,3,18,1,10,3
2,0.686541,0,2,77,4,10,1
2,0.621668,0,2,101,1,2,6
2,0.951308,0,1,127,3,4,6
2,1.131832,0,3,95,4,12,4
2,1.099001,0,3,54,3,10,4
2,0.84132,0,3,30,2,10,4
2,0.895635,0,1,43,2,11,1
2,0.929839,0,1,67,3,11,2
2,1.36625,0,3,78,4,10,4
2,0.961064,0,3,90,4,10,3
2,1.111424,0,3,3,1,9,3
2,0.766819,0,2,69,3,11,1
2,1.936365,1,3,107,1,2,7
2,1.194842,0,1,8,1,11,8
2,0.752246,0,2,81,4,11,8
2,0.898434,0,2,121,3,4,5
2,0.920145,0,1,82,4,12,2
2,0.764811,0,1,94,4,12,2
2,0.848791,0,1,106,1,2,5
2,0.729813,0,1,86,4,9,2
2,0.85177,0,1,74,4,9,2
2,0.908488,0,2,97,1,2,6
2,1.150295,0,3,48,2,12,3
2,0.961257,0,2,28,2,10,2
2,0.904796,0,3,123,3,4,7
2,0.901183,0,1,26,2,9,1
2,1.12301,0,3,131,3,4,7
2,0.864113,0,2,113,2,1,6
2,0.828918,0,2,89,4,10,8
2,1.208373,0,3,27,2,9,3
2,0.988554,0,3,75,4,9,4
2,0.784644,0,3,126,3,4,7
2,0.812251,0,2,25,2,9,2
2,1.17595,0,3,120,2,1,7
2,1.137313,0,1,116,2,1,5
2,1.11427,0,3,84,4,12,3
2,1.854379,0,1,104,1,2,5
2,1.14276,0,3,119,2,1,7
2,1.151246,0,1,22,1,12,8
2,1.00583,0,3,138,4,3,7
2,0.871382,0,2,13,1,9,2
2,1.00303,0,2,117,2,1,6
2,0.931314,0,3,87,4,9,3
2,1.563356,1,1,128,3,4,6
2,1.259544,0,1,130,3,4,6
2,0.913697,0,3,102,1,2,7
2,1.025055,0,2,64,3,10,1
2,0.79721,0,1,103,1,2,5
2,1.28147,0,1,80,4,11,2
2,0.914222,0,3,42,2,10,3
2,0.988301,0,1,110,2,1,5
2,0.967776,0,1,139,4,3,6
2,0.794451,0,1,55,3,11,2
2,0.936357,0,1,98,1,2,5
2,1.025749,0,3,23,1,12,4
2,1.563368,0,3,59,3,12,3
2,1.477792,0,2,4,1,10,2
2,0.954186,0,1,70,3,12,2
2,0.827253,0,3,39,2,9,4
2,0.842335,0,2,37,2,9,2
2,0.949884,0,3,111,2,1,7
2,1.632114,0,2,61,3,9,8
2,0.947631,0,3,36,2,12,4
5,4.052032,0,2,96,4,12,1
5,1.15703,1,1,11,1,12,1
5,1.128525,0,1,128,3,4,6
5,1.179826,1,3,21,1,11,4
5,1.069795,0,3,31,2,11,4
5,1.260304,1,1,41,2,10,8
5,0.905804,0,1,35,2,12,1
5,0.705251,0,1,119,2,1,5
5,1.965777,0,3,139,4,3,7
5,1.632347,1,2,34,2,12,2
5,1.196673,0,3,33,2,11,3
5,1.621602,0,3,61,3,9,4
5,2.49163,1,2,70,3,12,8
5,1.299603,0,2,18,1,10,2
5,2.083095,0,3,115,2,1,7
5,1.441663,0,3,112,2,1,7
5,1.862418,0,1,5,1,10,1
5,1.329549,0,2,42,2,10,2
5,2.032833,0,1,39,2,9,1
5,1.508619,0,2,134,4,3,5
5,1.403907,0,1,53,3,10,2
5,1.365887,1,2,118,2,1,6
5,2.620115,0,3,28,2,10,3
5,2.797063,1,3,49,3,9,3
5,2.252692,0,3,127,3,4,7
5,1.487709,0,1,99,1,2,5
5,1.816674,0,2,84,4,12,8
5,2.744708,0,2,94,4,12,8
5,1.499966,0,3,69,3,11,3
5,1.166705,0,3,52,3,10,3
5,1.374117,0,2,2,1,9,2
5,2.888378,0,1,65,3,10,2
5,1.309037,0,3,141,4,3,7
5,2.11664,0,3,1,1,9,4
5,1.982057,0,1,116,2,1,5
5,2.157406,0,1,83,4,12,2
5,0.926082,0,1,23,1,12,8
5,0.629578,0,1,89,4,10,2
5,1.988332,0,3,136,4,3,7
5,0.959229,0,1,71,3,12,2
5,0.974597,0,1,113,2,1,5
5,1.854532,1,2,50,3,9,8
5,1.490831,0,1,27,2,9,8
5,1.378173,0,3,79,4,11,4
5,1.312908,0,1,8,1,11,8
5,1.365646,0,3,19,1,11,3
5,1.567017,1,1,47,2,12,8
5,1.689677,0,3,129,3,4,7
5,1.094348,0,3,57,3,11,4
5,1.889398,0,2,62,3,9,1
5,2.263341,0,3,76,4,10,3
5,1.39106,0,3,88,4,10,4
5,1.008961,0,2,110,2,1,6
5,1.165497,1,3,13,1,9,3
5,1.301337,0,3,4,1,10,3
5,1.451212,0,1,137,4,3,6
5,0.886058,0,1,131,3,4,6
5,1.633489,1,3,124,3,4,7
5,1.175916,0,3,103,1,2,7
5,1.251561,0,1,3,1,9,8
5,1.560247,0,1,101,1,2,5
5,1.21662,0,3,67,3,11,3
5,1.231237,0,3,55,3,11,4
5,1.715258,0,1,95,4,12,2
5,1.759024,0,1,75,4,9,2
5,1.867919,0,2,24,1,12,2
5,1.474307,0,3,73,4,9,3
5,1.260742,0,2,12,1,12,2
5,1.767356,0,3,7,1,11,4
5,0.850567,0,2,108,1,2,6
5,1.585771,0,3,43,2,11,3
5,1.619614,0,3,25,2,9,4
5,1.481331,0,3,109,2,1,7
5,1.131331,0,3,117,2,1,7
5,1.423386,1,1,87,4,9,2
5,1.944796,0,1,107,1,2,5
5,1.064721,0,1,17,1,10,8
5,1.095064,0,1,63,3,9,2
5,1.262657,0,2,122,3,4,5
5,1.041475,0,3,40,2,10,4
5,1.132539,0,2,102,1,2,6
5,0.885755,0,1,44,2,11,1
5,1.28243,0,2,132,3,4,5
5,1.203691,0,2,54,3,10,1
5,2.40474,1,2,14,1,9,2
5,1.534943,1,2,142,4,3,5
5,0.82833,0,1,20,1,11,1
5,1.215387,0,3,9,1,11,3
5,1.589184,0,3,97,1,2,7
5,1.290347,0,2,72,3,12,1
5,0.830627,0,2,130,3,4,5
5,1.771689,0,1,104,1,2,5
5,2.639366,0,2,78,4,10,1
5,1.092487,0,3,45,2,11,4
5,1.447344,0,1,92,4,11,2
5,0.822593,0,2,26,2,9,2
5,0.629031,0,2,98,1,2,6
5,1.082268,1,2,22,1,12,2
5,0.871475,0,1,68,3,11,2
5,1.801101,0,1,59,3,12,2
5,0.872892,0,2,48,2,12,2
5,1.27434,1,2,46,2,12,2
5,1.23868,0,2,90,4,10,8
5,1.117825,0,3,37,2,9,3
5,0.965219,1,1,32,2,11,8
5,0.709563,0,1,80,4,11,2
5,1.313713,1,2,30,2,10,2
5,0.89516,0,2,138,4,3,5
5,0.76288,0,2,66,3,10,8
5,1.387366,0,3,100,1,2,7
5,1.178908,0,2,10,1,12,2
5,0.868782,0,2,86,4,9,1
5,1.916935,1,2,106,1,2,6
5,1.419335,0,3,133,4,3,7
5,0.926772,0,1,123,3,4,6
5,1.347825,1,2,38,2,9,2
5,1.269389,0,1,56,3,11,2
5,0.865726,0,1,135,4,3,6
5,1.21363,0,2,58,3,12,1
5,1.065102,0,1,51,3,9,2
5,2.200895,1,1,77,4,10,2
5,1.385937,0,2,126,3,4,5
5,1.545613,0,1,143,4,3,6
5,2.199949,0,2,144,4,3,5
5,1.30491,0,3,93,4,11,3
5,1.239167,0,1,15,1,9,1
5,1.859263,0,3,85,4,9,4
5,2.669425,1,3,105,1,2,7
5,2.001921,0,3,121,3,4,7
5,1.234782,0,1,140,4,3,6
5,1.24641,0,3,64,3,10,4
5,1.404134,0,3,81,4,11,4
5,1.030163,0,2,6,1,10,2
5,2.463978,1,2,114,2,1,6
5,1.810845,0,2,120,2,1,6
5,1.855307,1,3,16,1,10,4
5,1.462611,0,2,82,4,12,1
5,1.0682,0,1,125,3,4,6
5,2.200247,0,2,36,2,12,2
5,1.33421,1,1,29,2,10,1
5,1.872398,0,2,74,4,9,8
5,1.067014,0,1,111,2,1,5
5,1.580511,0,3,91,4,11,3
5,0.904595,1,2,60,3,12,8
5,1.169469,0,1,92,4,11,2
5,0.928388,0,2,102,1,2,6
5,1.242807,1,3,57,3,11,4
5,1.390325,0,3,16,1,10,4
5,0.94094,1,1,11,1,12,1
5,1.137153,0,2,122,3,4,5
5,1.421827,0,3,28,2,10,3
5,0.97915,0,1,128,3,4,6
5,1.260944,0,3,139,4,3,7
5,1.574682,0,3,136,4,3,7
5,1.071753,0,1,29,2,10,1
5,1.129305,0,2,84,4,12,8
5,0.81605,0,1,68,3,11,2
5,1.980859,0,3,25,2,9,4
5,1.226072,0,3,124,3,4,7
5,0.996352,0,1,35,2,12,1
5,0.739152,1,1,137,4,3,6
5,1.050085,0,1,47,2,12,8
5,1.555111,0,3,105,1,2,7
5,1.432802,0,2,58,3,12,1
5,0.620941,0,2,138,4,3,5
5,1.328822,0,2,110,2,1,6
5,0.979668,0,1,83,4,12,2
5,0.835309,0,2,10,1,12,2
5,0.949755,1,2,134,4,3,5
5,1.314081,0,2,86,4,9,1
5,1.118027,0,2,132,3,4,5
5,0.784485,0,1,95,4,12,2
5,1.140595,0,2,22,1,12,2
5,1.480884,0,1,63,3,9,2
5,0.953635,0,2,106,1,2,6
5,0.873447,0,2,108,1,2,6
5,1.488489,0,3,81,4,11,4
5,0.761044,0,2,60,3,12,8
5,1.161825,0,1,65,3,10,2
5,0.789302,0,1,111,2,1,5
5,0.72166,0,2,72,3,12,1
5,1.164052,0,3,133,4,3,7
5,1.321876,0,3,13,1,9,3
5,1.05065,0,2,82,4,12,1
5,1.248306,0,3,121,3,4,7
5,1.212609,0,1,80,4,11,2
5,0.740745,0,2,42,2,10,2
5,1.222078,1,2,118,2,1,6
5,1.045205,0,3,127,3,4,7
5,0.932794,0,3,9,1,11,3
5,1.402179,0,3,4,1,10,3
5,0.882157,0,1,125,3,4,6
5,0.976409,0,1,51,3,9,2
5,1.418651,0,2,120,2,1,6
5,0.709536,0,2,18,1,10,2
5,0.96648,0,3,97,1,2,7
5,0.704715,0,2,66,3,10,8
5,1.89583,0,3,43,2,11,3
5,1.622689,1,3,100,1,2,7
5,1.394376,0,1,87,4,9,2
5,0.771697,1,1,143,4,3,6
5,1.478969,0,3,52,3,10,3
5,0.966672,0,1,77,4,10,2
5,0.632607,0,1,59,3,12,2
5,0.728734,0,2,6,1,10,2
5,1.131192,0,1,131,3,4,6
5,0.871421,0,2,98,1,2,6
5,1.797825,0,3,79,4,11,4
5,0.752525,0,2,12,1,12,2
5,1.158742,0,2,126,3,4,5
5,1.380415,0,3,31,2,11,4
5,1.847974,0,1,99,1,2,5
5,2.247476,0,3,33,2,11,3
5,1.011092,0,1,5,1,10,1
5,1.048291,0,1,3,1,9,8
5,0.853061,0,3,112,2,1,7
5,1.500323,0,1,41,2,10,8
5,0.811032,1,2,34,2,12,2
5,0.826147,0,2,36,2,12,2
5,1.073709,0,1,140,4,3,6
5,1.403559,0,3,129,3,4,7
5,1.083741,0,2,96,4,12,1
5,0.993329,0,3,117,2,1,7
5,1.026692,0,3,55,3,11,4
5,1.326388,0,3,88,4,10,4
5,1.140438,0,1,39,2,9,1
5,1.216543,0,1,101,1,2,5
5,1.3286,1,3,141,4,3,7
5,1.027731,0,1,135,4,3,6
5,1.700779,0,3,85,4,9,4
5,0.871328,0,2,114,2,1,6
5,0.711875,0,2,48,2,12,2
5,0.86848,0,1,44,2,11,1
5,0.82674,0,2,24,1,12,2
5,0.584049,0,2,38,2,9,2
5,0.913986,1,3,40,2,10,4
5,1.093706,0,3,1,1,9,4
5,1.060365,0,2,94,4,12,8
5,1.173552,0,3,45,2,11,4
5,0.832978,1,1,32,2,11,8
5,0.939454,0,3,64,3,10,4
5,0.953991,0,3,7,1,11,4
5,0.798671,0,1,123,3,4,6
5,0.763409,0,1,17,1,10,8
5,0.701013,0,2,78,4,10,1
5,0.807168,0,1,20,1,11,1
5,0.92528,1,2,54,3,10,1
5,1.086137,0,1,107,1,2,5
5,0.991317,0,1,116,2,1,5
5,1.047163,0,3,49,3,9,3
5,1.365805,1,1,23,1,12,8
5,0.916639,0,2,130,3,4,5
5,1.076733,1,3,76,4,10,3
5,1.053755,0,3,61,3,9,4
5,1.263117,0,3,115,2,1,7
5,0.943933,0,1,56,3,11,2
5,1.875721,0,3,109,2,1,7
5,1.242488,0,2,30,2,10,2
5,0.88131,0,1,89,4,10,2
5,1.459509,0,3,69,3,11,3
5,1.228534,0,2,142,4,3,5
5,1.077477,0,3,21,1,11,4
5,1.271104,0,2,2,1,9,2
5,0.587953,0,2,74,4,9,8
5,1.028037,0,1,53,3,10,2
5,1.365248,1,1,27,2,9,8
5,0.988513,1,1,119,2,1,5
5,1.130102,0,3,91,4,11,3
5,1.258362,0,3,37,2,9,3
5,1.033413,0,1,113,2,1,5
5,0.832583,0,2,144,4,3,5
5,1.496659,0,1,8,1,11,8
5,2.124601,0,1,15,1,9,1
5,0.992125,0,1,71,3,12,2
5,0.860594,0,3,67,3,11,3
5,1.217825,0,3,93,4,11,3
5,1.110647,1,2,46,2,12,2
5,1.601848,0,2,26,2,9,2
5,1.966247,1,1,75,4,9,2
5,1.576456,1,3,73,4,9,3
5,1.624954,1,1,104,1,2,5
5,1.111264,0,2,50,3,9,8
5,0.93034,0,2,14,1,9,2
5,1.056615,0,2,70,3,12,8
5,0.70797,0,2,90,4,10,8
5,1.371689,1,2,62,3,9,1
5,1.839782,0,3,19,1,11,3
5,2.139173,0,3,103,1,2,7
5,0.855836,0,2,106,1,2,6
5,0.856823,0,2,86,4,9,1
5,0.929754,0,2,132,3,4,5
5,1.126017,0,2,26,2,9,2
5,0.748103,0,1,32,2,11,8
5,0.737455,1,3,91,4,11,3
5,0.794519,0,1,56,3,11,2
5,1.746781,1,3,31,2,11,4
5,0.679975,0,1,99,1,2,5
5,0.741316,0,2,72,3,12,1
5,0.722131,0,3,64,3,10,4
5,1.314671,0,1,11,1,12,1
5,0.6624,0,1,17,1,10,8
5,1.172699,0,3,79,4,11,4
5,0.909546,1,1,23,1,12,8
5,1.389945,0,2,94,4,12,8
5,1.2703,0,3,21,1,11,4
5,1.1034,0,3,129,3,4,7
5,1.17341,0,3,37,2,9,3
5,1.412355,0,3,52,3,10,3
5,1.17516,0,3,117,2,1,7
5,0.719449,0,1,87,4,9,2
5,1.539063,0,3,69,3,11,3
5,0.760258,0,1,107,1,2,5
5,0.651,0,2,2,1,9,2
5,1.37827,0,3,45,2,11,4
5,1.92623,0,3,33,2,11,3
5,0.748536,1,1,95,4,12,2
5,2.100563,0,3,55,3,11,4
5,2.367492,0,3,97,1,2,7
5,0.791723,0,1,75,4,9,2
5,2.163485,0,2,54,3,10,1
5,1.327933,0,1,111,2,1,5
5,1.342397,1,1,89,4,10,2
5,1.332384,1,3,141,4,3,7
5,1.944652,0,1,39,2,9,1
5,1.470052,1,2,96,4,12,1
5,1.004835,0,2,122,3,4,5
5,1.140485,0,2,14,1,9,2
5,0.903122,0,2,90,4,10,8
5,1.876764,0,3,67,3,11,3
5,1.32705,0,2,48,2,12,2
5,0.613013,0,2,60,3,12,8
5,0.98373,0,2,78,4,10,1
5,0.783142,0,2,42,2,10,2
5,0.608433,0,2,58,3,12,1
5,0.790383,0,2,46,2,12,2
5,0.939942,0,1,3,1,9,8
5,1.597934,1,1,15,1,9,1
5,0.895586,0,2,130,3,4,5
5,1.316164,0,2,134,4,3,5
5,0.676132,0,2,82,4,12,1
5,0.551482,0,2,138,4,3,5
5,0.758339,0,2,98,1,2,6
5,1.603669,0,3,4,1,10,3
5,1.112272,0,3,9,1,11,3
5,0.849431,0,1,125,3,4,6
5,1.257729,0,3,16,1,10,4
5,1.110239,0,2,62,3,9,1
5,1.119992,0,3,124,3,4,7
5,1.03829,0,1,135,4,3,6
5,1.15675,1,3,19,1,11,3
5,0.824632,0,1,92,4,11,2
5,1.237658,0,3,127,3,4,7
5,0.998339,0,1,116,2,1,5
5,0.857732,0,3,76,4,10,3
5,1.068453,0,3,57,3,11,4
5,1.140168,1,3,73,4,9,3
5,0.961983,1,3,133,4,3,7
5,1.263631,1,2,144,4,3,5
5,1.053957,0,1,59,3,12,2
5,1.971949,0,3,61,3,9,4
5,1.454956,0,3,28,2,10,3
5,1.837276,0,1,51,3,9,2
5,0.641767,0,1,68,3,11,2
5,1.72243,0,3,88,4,10,4
5,1.093762,1,1,131,3,4,6
5,1.19181,0,2,126,3,4,5
5,1.168673,0,2,38,2,9,2
5,2.317662,1,3,103,1,2,7
5,1.040172,0,1,119,2,1,5
5,1.355304,0,3,40,2,10,4
5,1.140928,1,1,140,4,3,6
5,0.780269,0,1,53,3,10,2
5,0.97649,0,1,47,2,12,8
5,0.772961,0,2,142,4,3,5
5,0.801015,0,2,66,3,10,8
5,0.648533,0,2,6,1,10,2
5,1.523833,0,3,13,1,9,3
5,0.860681,0,2,12,1,12,2
5,1.195617,0,1,44,2,11,1
5,1.066009,0,2,36,2,12,2
5,1.455022,0,1,83,4,12,2
5,1.131099,0,3,1,1,9,4
5,0.986054,0,2,118,2,1,6
5,1.462045,0,2,110,2,1,6
5,0.829272,0,2,114,2,1,6
5,0.811735,0,2,10,1,12,2
5,1.633842,0,3,25,2,9,4
5,0.991059,0,2,24,1,12,2
5,2.074048,1,1,80,4,11,2
5,0.894455,0,2,50,3,9,8
5,1.649591,0,3,93,4,11,3
5,0.721897,0,2,108,1,2,6
5,0.829991,0,1,8,1,11,8
5,1.600201,0,1,5,1,10,1
5,1.214901,0,1,71,3,12,2
5,1.153207,0,2,34,2,12,2
5,0.660778,0,2,30,2,10,2
5,1.322631,0,3,112,2,1,7
5,0.934652,0,2,120,2,1,6
5,0.752124,0,1,63,3,9,2
5,0.649736,0,2,74,4,9,8
5,1.380931,0,3,49,3,9,3
5,0.828573,0,1,104,1,2,5
5,1.352112,0,3,109,2,1,7
5,1.088916,0,3,100,1,2,7
5,1.300511,0,3,115,2,1,7
5,1.052594,0,1,20,1,11,1
5,0.965333,0,3,81,4,11,4
5,1.108918,0,1,65,3,10,2
5,1.250893,0,3,121,3,4,7
5,1.01383,0,1,123,3,4,6
5,0.812636,1,3,85,4,9,4
5,1.036647,0,3,7,1,11,4
5,1.124932,1,2,18,1,10,2
5,0.895975,0,1,128,3,4,6
5,1.039608,0,1,29,2,10,1
5,0.704513,0,2,102,1,2,6
5,1.273533,0,1,113,2,1,5
5,1.272205,0,1,27,2,9,8
5,1.863018,1,3,43,2,11,3
5,0.860884,0,2,84,4,12,8
5,1.577713,0,1,77,4,10,2
5,0.900838,0,1,35,2,12,1
5,1.035192,0,3,136,4,3,7
5,1.181563,0,3,139,4,3,7
5,1.014295,0,1,41,2,10,8
5,1.363986,0,3,105,1,2,7
5,1.172227,0,1,137,4,3,6
5,1.075075,0,2,22,1,12,2
5,0.782595,0,1,143,4,3,6
5,0.648568,0,1,101,1,2,5
5,0.784623,0,2,70,3,12,8
5,0.60373,0,2,34,2,12,2
5,0.858506,0,1,35,2,12,1
5,1.362845,0,3,9,1,11,3
5,0.947211,0,3,25,2,9,4
5,1.559526,0,3,64,3,10,4
5,1.048164,0,3,76,4,10,3
5,1.860097,0,2,122,3,4,5
5,1.718645,0,3,136,4,3,7
5,0.800165,0,2,106,1,2,6
5,0.67784,0,1,68,3,11,2
5,0.750898,0,1,137,4,3,6
5,0.678898,0,1,15,1,9,1
5,1.535294,0,2,84,4,12,8
5,1.050036,0,3,88,4,10,4
5,1.467764,0,1,47,2,12,8
5,0.708326,0,2,30,2,10,2
5,0.761402,1,1,11,1,12,1
5,1.323351,0,2,96,4,12,1
5,0.653388,0,2,66,3,10,8
5,0.938552,0,2,38,2,9,2
5,0.964158,0,1,101,1,2,5
5,1.135668,0,3,1,1,9,4
5,1.03661,0,3,55,3,11,4
5,1.039884,0,1,92,4,11,2
5,1.10569,0,3,115,2,1,7
5,1.359743,0,1,59,3,12,2
5,1.32795,0,3,85,4,9,4
5,1.623883,0,3,129,3,4,7
5,1.422863,0,2,90,4,10,8
5,0.900468,0,1,119,2,1,5
5,1.374305,0,3,93,4,11,3
5,1.093065,0,3,67,3,11,3
5,1.928884,0,1,63,3,9,2
5,0.731775,0,2,10,1,12,2
5,0.722978,0,2,94,4,12,8
5,0.689848,0,2,46,2,12,2
5,1.098682,0,1,65,3,10,2
5,0.731859,0,2,142,4,3,5
5,0.850683,0,1,131,3,4,6
5,0.930507,0,2,144,4,3,5
5,0.667689,0,3,81,4,11,4
5,1.359324,0,1,39,2,9,1
5,0.99166,0,3,103,1,2,7
5,0.722173,0,2,78,4,10,1
5,1.116274,0,1,107,1,2,5
5,1.450619,0,3,91,4,11,3
5,0.995664,1,2,102,1,2,6
5,1.402783,0,1,8,1,11,8
5,1.01305,0,1,17,1,10,8
5,0.680536,0,2,130,3,4,5
5,1.040238,0,3,100,1,2,7
5,1.636272,0,3,97,1,2,7
5,1.378363,0,3,79,4,11,4
5,1.401659,0,3,21,1,11,4
5,0.982451,0,3,121,3,4,7
5,1.103483,0,2,26,2,9,2
5,0.84395,0,1,27,2,9,8
5,0.674023,0,2,48,2,12,2
5,1.057766,0,2,86,4,9,1
5,0.981651,0,3,112,2,1,7
5,1.233943,1,3,133,4,3,7
5,1.431693,0,1,23,1,12,8
5,0.837852,0,1,44,2,11,1
5,1.454183,0,3,52,3,10,3
5,0.859445,0,2,12,1,12,2
5,0.688099,0,2,134,4,3,5
5,0.664177,0,2,58,3,12,1
5,0.6588,0,2,70,3,12,8
5,1.260478,0,2,74,4,9,8
5,1.137391,0,1,128,3,4,6
5,0.898553,0,1,99,1,2,5
5,0.869574,0,2,118,2,1,6
5,0.652129,0,2,138,4,3,5
5,0.774313,0,1,29,2,10,1
5,0.881406,0,1,80,4,11,2
5,0.748443,0,2,72,3,12,1
5,0.773366,0,1,3,1,9,8
5,0.918181,0,2,54,3,10,1
5,0.812778,0,3,7,1,11,4
5,0.64748,0,2,22,1,12,2
5,0.621583,0,1,53,3,10,2
5,0.683524,0,3,69,3,11,3
5,0.984748,0,3,61,3,9,4
5,0.977878,0,1,135,4,3,6
5,0.821003,0,3,117,2,1,7
5,1.183174,0,3,13,1,9,3
5,0.858705,0,1,116,2,1,5
5,1.45643,0,3,127,3,4,7
5,1.042893,0,3,43,2,11,3
5,1.042069,0,1,95,4,12,2
5,0.80789,0,2,82,4,12,1
5,0.80316,0,3,16,1,10,4
5,1.228047,0,2,62,3,9,1
5,0.737202,0,1,143,4,3,6
5,0.684044,0,1,125,3,4,6
5,0.994475,1,2,108,1,2,6
5,1.073249,0,3,57,3,11,4
5,0.864116,0,1,83,4,12,2
5,0.844314,0,1,123,3,4,6
5,1.354202,0,3,45,2,11,4
5,1.424401,0,2,126,3,4,5
5,0.899917,0,2,18,1,10,2
5,1.132458,1,2,24,1,12,2
5,1.14245,0,1,71,3,12,2
5,0.708239,0,1,32,2,11,8
5,1.135555,0,2,60,3,12,8
5,1.003574,0,3,141,4,3,7
5,1.562925,1,1,87,4,9,2
5,1.589399,0,1,89,4,10,2
5,1.25984,0,3,40,2,10,4
5,0.985798,0,3,49,3,9,3
5,0.982754,0,2,50,3,9,8
5,0.618631,0,2,14,1,9,2
5,1.036009,0,1,77,4,10,2
5,0.790978,0,1,56,3,11,2
5,0.986329,0,3,19,1,11,3
5,0.806875,0,1,75,4,9,2
5,1.138293,0,3,28,2,10,3
5,0.841438,0,3,33,2,11,3
5,0.609901,0,1,51,3,9,2
5,0.658654,0,2,2,1,9,2
5,0.555544,0,2,110,2,1,6
5,0.631355,0,1,111,2,1,5
5,1.009254,0,2,36,2,12,2
5,0.633589,0,2,120,2,1,6
5,1.122088,0,3,37,2,9,3
5,0.894234,1,1,104,1,2,5
5,0.752127,0,2,6,1,10,2
5,0.549293,0,1,140,4,3,6
5,0.558029,0,1,20,1,11,1
5,1.430276,0,3,109,2,1,7
5,0.960061,0,3,139,4,3,7
5,1.017243,0,1,5,1,10,1
5,0.991556,1,2,98,1,2,6
5,0.826368,1,1,41,2,10,8
5,1.056992,1,2,114,2,1,6
5,1.036815,0,3,73,4,9,3
5,0.836275,0,3,105,1,2,7
5,1.018431,0,1,113,2,1,5
5,1.036206,0,3,31,2,11,4
5,1.07271,0,3,124,3,4,7
5,1.051213,1,2,132,3,4,5
5,0.890671,0,3,4,1,10,3
5,1.191993,0,2,42,2,10,2
7,7.878009,0,3,54,3,10,4
7,1.582276,1,1,70,3,12,2
7,6.30346,0,3,97,1,2,7
7,6.105472,1,2,35,2,12,2
7,1.425619,0,1,26,2,9,1
7,4.755035,1,3,42,2,10,4
7,5.678958,1,1,4,1,10,8
7,1.846398,0,3,90,4,10,3
7,4.014199,1,3,85,4,9,4
7,2.50741,1,3,104,1,2,7
7,1.491389,0,2,55,3,11,1
7,4.352438,1,1,122,3,4,6
7,1.603202,1,2,39,2,9,2
7,4.406192,1,3,109,2,1,7
7,7.190596,1,2,27,2,9,2
7,1.15426,0,1,34,2,12,1
7,1.677116,0,2,127,3,4,5
7,2.103027,1,2,87,4,9,1
7,1.736957,1,3,25,2,9,3
7,1.300423,0,1,142,4,3,6
7,5.437966,0,3,18,1,10,4
7,1.864583,0,2,67,3,11,8
7,1.180796,0,2,31,2,11,2
7,2.174545,0,3,121,3,4,7
7,1.599611,0,2,141,4,3,5
7,3.482302,1,2,95,4,12,1
7,2.147857,0,1,53,3,10,2
7,1.286658,0,1,29,2,10,8
7,4.46984,0,3,126,3,4,7
7,2.841496,1,3,132,3,4,7
7,2.175154,0,3,32,2,11,4
7,1.744162,1,3,1,1,9,3
7,3.775532,0,1,76,4,10,2
7,3.581007,0,3,96,4,12,4
7,1.839788,0,2,79,4,11,1
7,1.764423,0,1,134,4,3,6
7,3.199725,0,1,2,1,9,1
7,3.430138,0,1,89,4,10,2
7,1.517549,0,1,41,2,10,1
7,1.735735,0,2,9,1,11,2
7,2.33205,1,2,131,3,4,5
7,2.53704,1,3,24,1,12,3
7,1.374741,0,3,49,3,9,3
7,3.561268,0,1,62,3,9,2
7,1.122986,0,2,111,2,1,6
7,3.297682,0,2,19,1,11,2
7,1.631205,0,1,110,2,1,5
7,2.661722,1,2,99,1,2,6
7,1.17839,0,1,101,1,2,5
7,1.17725,0,1,38,2,9,8
7,4.515989,1,1,86,4,9,2
7,1.787462,0,2,143,4,3,5
7,2.650417,1,2,105,1,2,6
7,2.125905,1,2,119,2,1,6
7,1.684101,0,3,60,3,12,3
7,1.505655,0,2,75,4,9,8
7,3.642657,1,3,78,4,10,4
7,1.434232,1,3,61,3,9,4
7,3.025442,1,1,112,2,1,5
7,1.902426,1,1,100,1,2,5
7,1.212719,0,2,71,3,12,1
7,1.585564,1,1,136,4,3,6
7,1.853871,0,3,80,4,11,4
7,1.473848,1,1,5,1,10,8
7,2.116228,1,2,63,3,9,1
7,4.999072,1,1,17,1,10,1
7,3.828442,1,3,108,1,2,7
7,1.578355,0,2,117,2,1,6
7,2.623227,0,2,123,3,4,5
7,2.162483,0,1,124,3,4,6
7,1.892643,0,2,21,1,11,2
7,8.484853,0,2,59,3,12,8
7,1.53325,0,2,115,2,1,6
7,4.243911,1,3,37,2,9,4
7,1.349844,0,1,28,2,10,8
7,1.082684,0,1,77,4,10,2
7,1.307426,0,3,36,2,12,4
7,0.980027,0,2,3,1,9,2
7,1.090385,0,2,103,1,2,6
7,1.871558,0,1,50,3,9,2
7,3.419353,1,1,125,3,4,6
7,2.969002,1,2,15,1,9,2
7,3.413569,0,3,116,2,1,7
7,2.607518,0,1,10,1,12,1
7,2.630725,1,3,138,4,3,7
7,4.262954,1,3,114,2,1,7
7,1.86435,0,3,44,2,11,3
7,0.946174,0,2,81,4,11,1
7,1.309304,0,2,23,1,12,2
7,1.026084,0,2,47,2,12,2
7,1.619103,1,1,22,1,12,8
7,3.387064,1,1,82,4,12,2
7,2.119313,0,1,40,2,10,1
7,1.528429,1,1,58,3,12,2
7,1.051421,0,2,45,2,11,2
7,2.237831,1,3,102,1,2,7
7,2.558786,1,2,107,1,2,6
7,1.185968,0,2,129,3,4,5
7,1.360014,0,1,113,2,1,5
7,1.624235,0,3,68,3,11,3
7,2.29951,1,2,135,4,3,5
7,2.336868,1,1,94,4,12,2
7,1.896943,0,1,52,3,10,2
7,1.159131,1,3,84,4,12,3
7,1.033231,1,3,30,2,10,3
7,1.025489,0,1,64,3,10,2
7,1.314607,1,3,56,3,11,4
7,2.887155,0,3,140,4,3,7
7,0.848622,0,2,93,4,11,8
7,1.886231,0,3,133,4,3,7
7,2.118109,1,1,106,1,2,5
7,3.384248,0,2,83,4,12,8
7,0.811658,0,2,91,4,11,8
7,1.672392,1,2,51,3,9,8
7,1.896364,1,3,120,2,1,7
7,1.163294,1,3,12,1,12,4
7,1.19113,0,3,8,1,11,4
7,1.345243,0,3,128,3,4,7
7,1.820688,1,1,88,4,10,2
7,0.829725,0,2,7,1,11,2
7,0.851678,0,2,33,2,11,2
7,1.418218,0,1,118,2,1,5
7,1.381772,1,1,16,1,10,1
7,1.774958,1,1,74,4,9,2
7,1.141861,0,1,98,1,2,5
7,1.50314,1,3,72,3,12,4
7,0.956214,0,1,130,3,4,6
7,1.043584,1,3,6,1,10,3
7,3.563597,1,2,11,1,12,2
7,2.310903,1,3,13,1,9,4
7,2.13395,0,2,57,3,11,1
7,1.876739,0,2,69,3,11,8
7,1.51348,0,3,48,2,12,3
7,1.627816,0,3,20,1,11,3
7,1.029547,0,3,92,4,11,3
7,1.254221,0,1,137,4,3,6
7,1.765893,1,3,66,3,10,3
7,0.863789,0,1,14,1,9,8
7,1.136802,0,2,139,4,3,5
7,1.14182,0,1,46,2,12,8
7,1.311288,0,1,65,3,10,2
7,1.380556,0,3,73,4,9,3
7,1.33828,0,3,144,4,3,7
7,0.684284,0,2,43,2,11,2
7,2.028802,0,3,80,4,11,4
7,1.467271,0,2,23,1,12,2
7,1.003617,1,3,133,4,3,7
7,1.524979,0,2,3,1,9,2
7,1.152184,0,2,111,2,1,6
7,1.375529,0,3,92,4,11,3
7,0.714484,1,1,41,2,10,1
7,0.783771,0,2,103,1,2,6
7,0.793077,0,1,52,3,10,2
7,0.976885,0,2,15,1,9,2
7,1.392823,0,1,130,3,4,6
7,1.521175,1,2,115,2,1,6
7,1.001877,0,1,64,3,10,2
7,1.361339,1,2,87,4,9,1
7,0.606687,0,2,69,3,11,8
7,1.029757,0,1,77,4,10,2
7,1.391044,1,1,34,2,12,1
7,1.594791,1,3,140,4,3,7
7,1.399071,1,1,124,3,4,6
7,2.319317,0,1,110,2,1,5
7,2.29212,0,1,122,3,4,6
7,1.655185,1,1,134,4,3,6
7,1.485766,1,2,105,1,2,6
7,1.753244,1,3,42,2,10,4
7,2.616426,1,2,59,3,12,8
7,2.734312,1,1,62,3,9,2
7,1.618013,1,3,132,3,4,7
7,1.795976,0,3,20,1,11,3
7,1.829972,0,1,26,2,9,1
7,1.153641,0,1,136,4,3,6
7,1.775512,0,1,118,2,1,5
7,1.133612,1,3,32,2,11,4
7,1.743027,0,3,48,2,12,3
7,0.876038,0,2,19,1,11,2
7,0.749395,0,1,101,1,2,5
7,2.589556,1,3,96,4,12,4
7,2.642645,1,3,24,1,12,3
7,1.475749,1,3,102,1,2,7
7,0.810314,0,2,9,1,11,2
7,2.961639,1,2,81,4,11,1
7,1.111693,0,1,100,1,2,5
7,2.446412,1,1,94,4,12,2
7,1.585186,0,1,70,3,12,2
7,1.637294,0,2,11,1,12,2
7,1.146012,0,2,99,1,2,6
7,1.688498,1,3,18,1,10,4
7,1.363529,1,1,28,2,10,8
7,1.720467,1,3,30,2,10,3
7,1.080072,0,3,8,1,11,4
7,1.111184,1,3,85,4,9,4
7,2.355999,0,3,78,4,10,4
7,2.035671,1,3,114,2,1,7
7,1.20441,0,3,60,3,12,3
7,1.198987,0,2,47,2,12,2
7,1.310631,0,3,120,2,1,7
7,1.257935,1,1,4,1,10,8
7,0.837086,1,1,76,4,10,2
7,1.141641,0,1,58,3,12,2
7,1.064282,0,2,117,2,1,6
7,1.1512,0,2,51,3,9,8
7,0.973033,1,3,1,1,9,3
7,0.969446,1,2,75,4,9,8
7,1.968418,1,2,55,3,11,1
7,1.374267,1,1,86,4,9,2
7,1.02682,0,3,84,4,12,3
7,0.794575,0,1,22,1,12,8
7,0.817271,0,2,57,3,11,1
7,0.735886,0,2,7,1,11,2
7,1.196436,1,2,107,1,2,6
7,0.905097,0,1,10,1,12,1
7,1.151266,1,1,53,3,10,2
7,1.625077,0,3,73,4,9,3
7,1.722493,1,3,37,2,9,4
7,1.2895,0,2,143,4,3,5
7,0.935171,0,3,36,2,12,4
7,0.802551,0,2,141,4,3,5
7,1.496151,0,3,144,4,3,7
7,1.501537,0,1,17,1,10,1
7,1.314411,0,1,16,1,10,1
7,1.257611,1,3,138,4,3,7
7,2.145194,0,3,54,3,10,4
7,2.682764,0,3,61,3,9,4
7,1.37128,0,2,83,4,12,8
7,1.374902,0,1,29,2,10,8
7,1.151367,0,2,135,4,3,5
7,0.948861,0,2,39,2,9,2
7,1.1126,0,1,106,1,2,5
7,1.137884,1,3,6,1,10,3
7,0.893132,0,2,139,4,3,5
7,1.749203,1,1,88,4,10,2
7,1.156723,0,1,113,2,1,5
7,1.875572,1,3,68,3,11,3
7,0.906714,1,3,126,3,4,7
7,1.207849,1,3,66,3,10,3
7,1.28861,0,3,56,3,11,4
7,1.115272,0,2,91,4,11,8
7,1.556759,0,1,14,1,9,8
7,2.157109,0,2,71,3,12,1
7,0.729114,0,1,50,3,9,2
7,1.840261,1,3,121,3,4,7
7,1.071097,0,2,35,2,12,2
7,0.686285,0,2,21,1,11,2
7,1.307186,0,3,49,3,9,3
7,0.902412,0,2,27,2,9,2
7,1.065977,0,3,104,1,2,7
7,1.206613,0,2,93,4,11,8
7,1.102681,0,2,43,2,11,2
7,1.168374,0,2,123,3,4,5
7,2.96118,1,2,131,3,4,5
7,2.652004,1,3,13,1,9,4
7,1.299776,0,1,40,2,10,1
7,1.007197,0,1,74,4,9,2
7,0.808183,0,2,129,3,4,5
7,1.272942,1,2,63,3,9,1
7,0.667364,0,2,127,3,4,5
7,1.556171,0,3,25,2,9,3
7,1.140149,0,1,5,1,10,8
7,2.153115,0,2,95,4,12,1
7,1.101307,0,2,33,2,11,2
7,1.63609,0,3,116,2,1,7
7,1.716021,0,3,108,1,2,7
7,1.950382,0,3,12,1,12,4
7,0.719606,0,2,31,2,11,2
7,2.607983,0,3,109,2,1,7
7,1.834414,0,3,97,1,2,7
7,0.948382,1,1,137,4,3,6
7,0.950364,1,3,44,2,11,3
7,0.930506,0,1,89,4,10,2
7,0.994296,0,2,119,2,1,6
7,0.974161,0,2,45,2,11,2
7,1.514983,0,3,72,3,12,4
7,0.760913,0,1,125,3,4,6
7,1.49313,1,1,2,1,9,1
7,1.426753,0,3,128,3,4,7
7,1.494827,0,3,90,4,10,3
7,1.317077,1,1,65,3,10,2
7,0.746723,0,1,46,2,12,8
7,1.177052,0,1,112,2,1,5
7,1.263869,1,1,98,1,2,5
7,1.38024,0,1,142,4,3,6
7,0.720902,0,2,79,4,11,1
7,1.105586,0,1,82,4,12,2
7,0.786517,0,2,67,3,11,8
7,0.659568,0,1,38,2,9,8
7,0.980985,0,1,17,1,10,1
7,1.258849,0,3,144,4,3,7
7,1.353664,1,1,14,1,9,8
7,1.157257,0,2,3,1,9,2
7,1.325297,0,1,122,3,4,6
7,1.89386,1,3,97,1,2,7
7,2.312049,0,3,61,3,9,4
7,1.018828,0,1,134,4,3,6
7,0.962434,0,2,71,3,12,1
7,0.896182,1,2,9,1,11,2
7,0.786066,0,1,65,3,10,2
7,0.703399,0,1,5,1,10,8
7,0.795442,1,1,74,4,9,2
7,0.843418,0,1,77,4,10,2
7,0.901474,0,1,94,4,12,2
7,1.135199,1,1,28,2,10,8
7,1.385935,0,3,42,2,10,4
7,0.915613,0,1,100,1,2,5
7,0.682648,0,1,58,3,12,2
7,1.753091,0,3,68,3,11,3
7,1.415303,0,2,87,4,9,1
7,1.655656,0,3,12,1,12,4
7,1.043723,0,2,47,2,12,2
7,0.969265,0,2,57,3,11,1
7,0.972977,1,1,62,3,9,2
7,1.371374,1,3,126,3,4,7
7,1.091208,0,3,48,2,12,3
7,0.768148,0,1,70,3,12,2
7,1.087286,0,2,63,3,9,1
7,0.900528,0,2,103,1,2,6
7,0.683143,0,2,69,3,11,8
7,0.996631,0,2,143,4,3,5
7,1.136015,1,3,54,3,10,4
7,1.20166,1,1,41,2,10,1
7,1.140834,1,1,137,4,3,6
7,0.802767,0,1,4,1,10,8
7,1.16577,0,1,136,4,3,6
7,1.568761,0,3,6,1,10,3
7,0.831865,0,1,29,2,10,8
7,0.936293,0,2,99,1,2,6
7,1.01851,0,3,85,4,9,4
7,1.043331,0,3,120,2,1,7
7,1.444667,0,1,82,4,12,2
7,1.399042,1,2,33,2,11,2
7,1.169823,0,3,90,4,10,3
7,1.052788,0,1,88,4,10,2
7,1.95814,1,3,114,2,1,7
7,1.071149,0,1,76,4,10,2
7,1.71209,0,1,38,2,9,8
7,0.845551,0,1,34,2,12,1
7,0.756734,0,1,98,1,2,5
7,1.522202,1,3,49,3,9,3
7,1.215131,1,2,111,2,1,6
7,0.848083,0,2,67,3,11,8
7,1.032522,1,3,121,3,4,7
7,0.683939,0,1,22,1,12,8
7,1.516039,0,3,66,3,10,3
7,0.632057,1,2,15,1,9,2
7,0.632057,1,1,53,3,10,2
7,3.547814,0,3,102,1,2,7
7,0.728554,0,2,93,4,11,8
7,0.833607,0,1,113,2,1,5
7,0.959495,0,2,23,1,12,2
7,1.109276,0,1,40,2,10,1
7,1.488041,0,3,132,3,4,7
7,1.027481,0,2,117,2,1,6
7,1.479454,0,3,56,3,11,4
7,1.921904,1,3,73,4,9,3
7,0.843778,0,2,119,2,1,6
7,1.005263,0,1,110,2,1,5
7,1.021625,1,2,141,4,3,5
7,1.29907,1,3,1,1,9,3
7,1.247236,1,2,59,3,12,8
7,2.096239,1,1,89,4,10,2
7,1.950844,1,3,20,1,11,3
7,1.031552,0,3,84,4,12,3
7,0.867016,0,3,44,2,11,3
7,1.227566,1,3,133,4,3,7
7,0.600022,0,2,105,1,2,6
7,1.816602,0,3,24,1,12,3
7,1.476875,1,3,128,3,4,7
7,1.060863,0,1,106,1,2,5
7,1.040463,0,3,36,2,12,4
7,1.282466,1,1,46,2,12,8
7,1.28241,1,2,83,4,12,8
7,1.274582,0,2,75,4,9,8
7,1.122254,0,2,139,4,3,5
7,1.699895,0,1,142,4,3,6
7,1.390818,0,2,95,4,12,1
7,2.481803,0,1,125,3,4,6
7,0.848427,0,2,27,2,9,2
7,0.957797,0,1,50,3,9,2
7,0.644207,0,2,127,3,4,5
7,0.955968,0,3,104,1,2,7
7,0.872484,0,2,11,1,12,2
7,1.011183,0,2,115,2,1,6
7,1.643883,0,1,52,3,10,2
7,1.424657,1,3,60,3,12,3
7,1.194846,0,3,32,2,11,4
7,1.766896,0,3,109,2,1,7
7,1.526004,0,2,123,3,4,5
7,0.893435,0,1,10,1,12,1
7,1.258704,0,3,8,1,11,4
7,1.05228,0,2,55,3,11,1
7,1.147856,0,3,72,3,12,4
7,1.557552,0,3,116,2,1,7
7,1.396748,0,3,138,4,3,7
7,0.85371,0,2,129,3,4,5
7,0.844407,0,2,31,2,11,2
7,0.923823,1,3,30,2,10,3
7,1.524854,0,1,101,1,2,5
7,1.455758,1,3,78,4,10,4
7,1.396232,0,3,18,1,10,4
7,0.97649,0,2,43,2,11,2
7,0.954272,0,2,21,1,11,2
7,0.99489,0,1,86,4,9,2
7,1.615481,0,3,13,1,9,4
7,1.034243,0,1,64,3,10,2
7,0.917032,0,2,135,4,3,5
7,0.866341,0,2,19,1,11,2
7,1.215467,0,1,112,2,1,5
7,0.975221,0,2,91,4,11,8
7,1.367989,0,3,25,2,9,3
7,1.18564,0,3,92,4,11,3
7,2.13044,0,1,2,1,9,1
7,2.226461,1,2,39,2,9,2
7,0.808481,0,1,118,2,1,5
7,1.407682,0,2,131,3,4,5
7,2.271814,0,3,80,4,11,4
7,1.728408,0,1,26,2,9,1
7,0.755931,0,2,7,1,11,2
7,1.149037,1,2,107,1,2,6
7,2.265563,0,3,140,4,3,7
7,1.287606,1,2,51,3,9,8
7,1.089222,0,2,79,4,11,1
7,3.575618,1,1,124,3,4,6
7,1.44589,1,3,96,4,12,4
7,2.154029,1,2,45,2,11,2
7,0.787066,0,2,35,2,12,2
7,0.829303,0,2,81,4,11,1
7,0.647925,0,1,130,3,4,6
7,1.653037,0,3,37,2,9,4
7,1.007449,0,3,108,1,2,7
7,0.757283,0,1,16,1,10,1
7,1.359952,0,3,13,1,9,4
7,1.320946,0,1,46,2,12,8
7,0.853853,0,3,116,2,1,7
7,0.759742,0,1,134,4,3,6
7,1.004714,0,1,77,4,10,2
7,0.879352,0,2,83,4,12,8
7,0.861107,0,2,127,3,4,5
7,1.44564,1,2,35,2,12,2
7,1.202753,1,2,119,2,1,6
7,1.286424,1,3,37,2,9,4
7,1.278339,0,1,40,2,10,1
7,0.956655,0,1,28,2,10,8
7,1.269947,0,2,19,1,11,2
7,1.054401,1,1,41,2,10,1
7,2.432114,0,3,126,3,4,7
7,0.675153,0,2,81,4,11,1
7,1.136954,0,1,34,2,12,1
7,0.866199,0,1,53,3,10,2
7,1.137102,0,1,17,1,10,1
7,1.28826,1,3,85,4,9,4
7,1.457205,0,3,12,1,12,4
7,0.900874,0,3,120,2,1,7
7,1.302606,1,2,47,2,12,2
7,0.791817,0,1,110,2,1,5
7,0.932951,0,1,88,4,10,2
7,1.026287,1,3,128,3,4,7
7,0.700762,0,2,51,3,9,8
7,2.152088,1,1,124,3,4,6
7,1.129598,0,2,87,4,9,1
7,1.073247,0,1,113,2,1,5
7,1.437443,0,3,80,4,11,4
7,1.382762,0,1,94,4,12,2
7,1.100341,0,3,24,1,12,3
7,1.168635,0,3,102,1,2,7
7,1.026768,0,2,111,2,1,6
7,1.258454,0,3,48,2,12,3
7,1.66157,1,3,60,3,12,3
7,0.857108,0,1,118,2,1,5
7,1.806285,0,3,78,4,10,4
7,0.76335,0,1,2,1,9,1
7,0.742769,0,2,79,4,11,1
7,1.254522,0,3,44,2,11,3
7,1.045488,0,1,10,1,12,1
7,0.683534,0,2,21,1,11,2
7,1.623489,1,2,123,3,4,5
7,2.270869,1,2,27,2,9,2
7,0.730197,0,2,139,4,3,5
7,1.806758,0,3,32,2,11,4
7,2.017933,0,3,30,2,10,3
7,1.142591,0,3,104,1,2,7
7,0.756656,0,1,122,3,4,6
7,0.837043,0,3,56,3,11,4
7,1.770438,1,2,135,4,3,5
7,0.94458,0,3,68,3,11,3
7,0.691143,0,2,7,1,11,2
7,1.005164,0,3,92,4,11,3
7,2.233055,1,1,5,1,10,8
7,0.846988,0,1,130,3,4,6
7,1.780243,1,3,109,2,1,7
7,1.683961,0,3,121,3,4,7
7,0.859756,0,1,98,1,2,5
7,0.825015,0,2,39,2,9,2
7,0.744496,0,1,74,4,9,2
7,1.150735,1,3,66,3,10,3
7,0.692285,1,2,71,3,12,1
7,0.694836,0,1,38,2,9,8
7,0.86158,0,1,22,1,12,8
7,1.224109,0,1,64,3,10,2
7,1.732924,0,1,89,4,10,2
7,1.619806,0,3,72,3,12,4
7,0.847698,0,2,15,1,9,2
7,1.06687,1,3,97,1,2,7
7,0.881382,0,2,107,1,2,6
7,0.827612,0,2,75,4,9,8
7,1.253656,1,3,133,4,3,7
7,1.007997,0,3,144,4,3,7
7,0.798637,1,3,6,1,10,3
7,1.510777,1,3,132,3,4,7
7,0.752045,0,1,106,1,2,5
7,0.642785,0,2,115,2,1,6
7,0.641585,0,2,9,1,11,2
7,0.599145,0,2,55,3,11,1
7,0.784893,0,1,29,2,10,8
7,1.51402,1,2,99,1,2,6
7,1.003267,0,1,112,2,1,5
7,1.010851,0,2,103,1,2,6
7,1.774608,0,3,138,4,3,7
7,1.027167,1,1,58,3,12,2
7,1.163575,0,1,52,3,10,2
7,1.051393,0,2,129,3,4,5
7,1.309354,0,3,73,4,9,3
7,1.308843,0,3,96,4,12,4
7,1.215233,1,2,131,3,4,5
7,0.659786,0,2,57,3,11,1
7,0.95869,0,1,82,4,12,2
7,0.697594,0,2,105,1,2,6
7,0.999396,0,3,84,4,12,3
7,1.108473,1,2,63,3,9,1
7,0.652936,1,1,101,1,2,5
7,0.668905,0,2,45,2,11,2
7,1.525508,0,1,125,3,4,6
7,1.486784,1,1,65,3,10,2
7,1.85934,0,3,1,1,9,3
7,1.321877,0,3,49,3,9,3
7,0.860038,0,1,100,1,2,5
7,1.904117,1,3,114,2,1,7
7,0.765015,0,2,67,3,11,8
7,1.288886,1,3,42,2,10,4
7,1.545415,1,3,25,2,9,3
7,1.81994,0,1,26,2,9,1
7,1.806893,0,3,18,1,10,4
7,1.07918,0,3,108,1,2,7
7,0.767995,0,1,16,1,10,1
7,0.821095,0,1,136,4,3,6
7,0.626443,1,2,33,2,11,2
7,1.401378,1,3,61,3,9,4
7,2.659778,0,3,20,1,11,3
7,0.815466,0,1,142,4,3,6
7,1.754544,1,1,62,3,9,2
7,1.18484,1,2,3,1,9,2
7,1.569854,0,3,54,3,10,4
7,1.167305,0,3,140,4,3,7
7,1.057499,0,1,4,1,10,8
7,1.894455,1,3,8,1,11,4
7,1.103831,0,2,117,2,1,6
7,0.785909,0,1,137,4,3,6
7,1.906475,0,2,11,1,12,2
7,1.327001,0,3,36,2,12,4
7,2.156332,1,3,90,4,10,3
7,0.666004,0,2,31,2,11,2
7,1.026796,1,1,50,3,9,2
7,0.823255,1,2,95,4,12,1
7,1.08287,0,2,141,4,3,5
7,0.622975,0,2,69,3,11,8
7,0.624805,0,2,93,4,11,8
7,1.350778,1,1,86,4,9,2
7,0.846829,0,2,91,4,11,8
7,1.151587,1,1,70,3,12,2
7,1.399189,0,2,143,4,3,5
7,0.692027,0,2,23,1,12,2
7,0.680262,0,1,14,1,9,8
7,1.125497,0,2,59,3,12,8
7,1.10331,1,1,76,4,10,2
7,0.672251,0,2,43,2,11,2
9,1.033337,0,2,85,4,9,8
9,1.535219,1,1,40,2,10,8
9,1.08353,0,2,114,2,1,6
9,1.108427,0,1,28,2,10,1
9,1.268791,1,2,115,2,1,6
9,1.247654,0,3,131,3,4,7
9,1.355381,0,2,61,3,9,8
9,1.112767,0,1,68,3,11,2
9,1.400224,0,2,66,3,10,1
9,1.513065,0,1,77,4,10,2
9,1.859567,1,1,33,2,11,8
9,1.896516,0,1,128,3,4,6
9,1.035787,0,1,41,2,10,8
9,0.797011,0,1,112,2,1,5
9,0.843743,0,1,100,1,2,5
9,1.940409,0,3,72,3,12,4
9,1.567623,0,2,73,4,9,1
9,1.360798,0,3,47,2,12,4
9,1.697547,0,3,39,2,9,3
9,2.15148,0,1,52,3,10,2
9,1.52396,0,3,36,2,12,3
9,1.568164,0,3,123,3,4,7
9,1.25278,0,3,14,1,9,3
9,2.12455,1,3,95,4,12,3
9,1.283115,0,3,74,4,9,3
9,2.389171,0,2,58,3,12,8
9,1.067137,0,3,83,4,12,4
9,2.121213,1,1,56,3,11,2
9,1.501172,0,3,3,1,9,4
9,1.268118,0,2,54,3,10,8
9,1.197564,0,1,45,2,11,1
9,0.89835,0,1,20,1,11,1
9,1.293394,0,3,96,4,12,4
9,1.274075,0,2,37,2,9,2
9,0.995528,0,1,29,2,10,1
9,0.994051,0,1,81,4,11,2
9,1.948756,0,3,135,4,3,7
9,1.155007,0,3,144,4,3,7
9,1.501988,0,2,82,4,12,8
9,0.98833,0,1,32,2,11,8
9,1.598163,0,3,26,2,9,4
9,1.20829,0,1,104,1,2,5
9,1.264611,0,1,76,4,10,2
9,1.338934,0,3,23,1,12,4
9,1.497647,0,1,44,2,11,1
9,1.230592,0,3,35,2,12,3
9,1.483949,0,3,99,1,2,7
9,1.246515,0,3,63,3,9,3
9,1.426275,1,2,7,1,11,2
9,1.778514,0,3,51,3,9,4
9,1.304213,0,3,86,4,9,4
9,1.543235,1,2,138,4,3,5
9,1.024133,0,3,122,3,4,7
9,1.361811,0,3,119,2,1,7
9,1.093957,0,3,48,2,12,4
9,1.218177,0,3,120,2,1,7
9,0.944199,0,1,113,2,1,5
9,1.605797,0,3,11,1,12,3
9,1.652269,0,3,87,4,9,3
9,1.410193,0,1,57,3,11,2
9,1.898062,0,3,62,3,9,4
9,1.450994,0,2,109,2,1,6
9,1.667997,0,2,10,1,12,2
9,1.020218,0,1,88,4,10,2
9,2.173308,0,1,93,4,11,2
9,1.380857,0,3,60,3,12,3
9,1.40325,0,1,80,4,11,2
9,1.067054,0,2,90,4,10,1
9,1.198967,0,3,71,3,12,3
9,1.014048,1,2,118,2,1,6
9,1.553378,0,3,143,4,3,7
9,1.509272,0,1,92,4,11,2
9,1.325448,0,3,12,1,12,3
9,1.003402,1,2,103,1,2,6
9,1.432262,0,1,125,3,4,6
9,1.879993,0,1,117,2,1,5
9,1.451479,0,3,111,2,1,7
9,2.125684,0,2,70,3,12,1
9,0.885938,0,1,124,3,4,6
9,0.836088,0,2,42,2,10,2
9,1.307377,0,1,16,1,10,8
9,1.464757,0,3,134,4,3,7
9,1.390531,0,2,133,4,3,5
9,0.945985,0,1,65,3,10,2
9,1.533652,0,2,78,4,10,8
9,0.891498,0,2,1,1,9,2
9,1.133798,0,1,105,1,2,5
9,0.615125,0,2,43,2,11,2
9,0.756591,0,2,25,2,9,2
9,1.017254,0,1,89,4,10,2
9,0.906374,0,1,101,1,2,5
9,1.061124,0,2,55,3,11,1
9,1.957801,0,2,30,2,10,2
9,1.358623,1,2,6,1,10,2
9,1.353946,0,3,108,1,2,7
9,1.963342,0,3,2,1,9,4
9,3.284173,0,1,136,4,3,6
9,1.828983,1,2,130,3,4,5
9,1.318133,1,2,127,3,4,5
9,1.374772,0,2,19,1,11,2
9,1.010741,0,2,94,4,12,1
9,0.77723,0,2,13,1,9,2
9,1.688103,0,2,31,2,11,2
9,1.078287,0,1,64,3,10,2
9,1.037411,0,1,5,1,10,1
9,2.928876,0,1,8,1,11,8
9,1.244976,0,3,84,4,12,3
9,1.635774,0,2,34,2,12,2
9,1.081452,0,1,17,1,10,8
9,1.236812,0,2,49,3,9,1
9,2.11677,0,3,38,2,9,3
9,1.339675,0,3,110,2,1,7
9,1.913522,0,3,24,1,12,4
9,1.590874,0,1,129,3,4,6
9,1.610165,1,2,18,1,10,2
9,1.734701,0,2,79,4,11,1
9,1.115484,0,1,69,3,11,2
9,1.047527,0,1,137,4,3,6
9,2.109683,1,2,22,1,12,2
9,1.679623,0,2,102,1,2,6
9,1.329732,0,2,97,1,2,6
9,0.918059,0,1,9,1,11,8
9,1.44166,0,2,91,4,11,8
9,0.85392,0,2,121,3,4,5
9,0.826114,0,2,46,2,12,2
9,1.178843,0,3,59,3,12,4
9,1.447008,0,3,132,3,4,7
9,1.500036,0,1,21,1,11,1
9,1.42236,0,1,4,1,10,1
9,0.991182,0,2,126,3,4,5
9,2.09373,0,2,139,4,3,5
9,1.546844,0,1,141,4,3,6
9,1.223263,0,3,107,1,2,7
9,1.319859,0,2,106,1,2,6
9,0.71726,0,2,67,3,11,8
9,1.334035,0,1,116,2,1,5
9,1.043438,0,2,142,4,3,5
9,1.038571,0,3,98,1,2,7
9,1.116979,1,1,53,3,10,2
9,1.247093,0,3,50,3,9,3
9,1.63308,0,1,140,4,3,6
9,1.102854,0,3,15,1,9,3
9,1.491058,0,3,75,4,9,4
9,1.380673,0,3,27,2,9,4
9,1.32211,0,3,84,4,12,3
9,1.326251,0,3,38,2,9,3
9,1.27205,0,3,107,1,2,7
9,1.11643,0,3,3,1,9,4
9,1.592688,0,1,112,2,1,5
9,1.107917,0,2,106,1,2,6
9,1.050964,0,2,6,1,10,2
9,1.295307,0,2,54,3,10,8
9,1.62998,1,1,81,4,11,2
9,0.953474,0,2,138,4,3,5
9,0.965055,0,1,69,3,11,2
9,1.046582,0,1,76,4,10,2
9,1.715004,0,2,109,2,1,6
9,1.618788,0,2,58,3,12,8
9,0.838436,0,2,7,1,11,2
9,1.549503,0,3,35,2,12,3
9,1.435808,0,3,134,4,3,7
9,1.193763,0,3,74,4,9,3
9,1.224576,0,1,104,1,2,5
9,1.390986,0,1,101,1,2,5
9,1.114612,0,1,129,3,4,6
9,1.019937,0,2,130,3,4,5
9,1.471912,0,3,39,2,9,3
9,1.658196,0,2,139,4,3,5
9,1.48013,0,3,122,3,4,7
9,1.271232,0,3,131,3,4,7
9,1.171254,0,1,93,4,11,2
9,0.786985,0,2,127,3,4,5
9,0.851663,0,1,29,2,10,1
9,1.289238,0,3,132,3,4,7
9,1.526878,0,2,22,1,12,2
9,1.067192,0,1,140,4,3,6
9,1.032767,0,3,98,1,2,7
9,1.050746,0,1,125,3,4,6
9,0.812737,0,2,34,2,12,2
9,1.168872,0,3,62,3,9,4
9,0.972759,0,3,12,1,12,3
9,1.584985,0,2,70,3,12,1
9,0.900699,0,1,56,3,11,2
9,0.929155,0,2,18,1,10,2
9,1.218052,0,2,10,1,12,2
9,1.05678,0,1,113,2,1,5
9,1.102522,0,3,36,2,12,3
9,1.621997,0,1,137,4,3,6
9,1.294988,0,3,144,4,3,7
9,1.007402,0,2,142,4,3,5
9,0.849052,0,1,8,1,11,8
9,0.880856,0,1,20,1,11,1
9,0.737039,0,1,33,2,11,8
9,0.915923,0,2,114,2,1,6
9,1.061851,0,3,87,4,9,3
9,1.162629,0,2,103,1,2,6
9,1.220732,0,3,59,3,12,4
9,1.520528,0,1,89,4,10,2
9,1.055443,0,3,50,3,9,3
9,1.253763,0,3,143,4,3,7
9,0.95991,0,2,94,4,12,1
9,0.879089,0,2,82,4,12,8
9,1.103808,0,3,51,3,9,4
9,0.851275,0,2,30,2,10,2
9,1.172344,0,2,97,1,2,6
9,1.574378,0,2,25,2,9,2
9,0.797218,0,2,79,4,11,1
9,1.332139,0,3,27,2,9,4
9,1.235838,0,3,14,1,9,3
9,0.929795,0,3,83,4,12,4
9,1.35912,0,1,21,1,11,1
9,0.714578,0,2,91,4,11,8
9,1.062275,0,2,19,1,11,2
9,1.125426,0,3,119,2,1,7
9,0.777314,0,2,133,4,3,5
9,0.529918,0,2,73,4,9,1
9,0.518503,0,2,43,2,11,2
9,1.166701,0,2,42,2,10,2
9,0.762571,0,1,17,1,10,8
9,0.774165,0,2,1,1,9,2
9,1.795045,0,1,32,2,11,8
9,1.049777,0,3,60,3,12,3
9,0.994935,0,3,95,4,12,3
9,1.053572,0,1,9,1,11,8
9,1.574287,0,3,48,2,12,4
9,0.743895,0,2,13,1,9,2
9,1.339436,0,1,57,3,11,2
9,0.846475,0,2,78,4,10,8
9,1.084825,0,3,75,4,9,4
9,0.936175,0,2,61,3,9,8
9,0.652412,0,2,37,2,9,2
9,0.505216,0,2,55,3,11,1
9,0.505216,0,2,121,3,4,5
9,0.836241,0,1,128,3,4,6
9,0.941966,0,2,90,4,10,1
9,1.165279,0,3,2,1,9,4
9,1.513243,1,2,126,3,4,5
9,1.070677,0,3,23,1,12,4
9,0.999678,0,1,28,2,10,1
9,0.794883,0,1,52,3,10,2
9,0.812562,0,1,16,1,10,8
9,1.088067,0,2,118,2,1,6
9,0.648077,0,1,77,4,10,2
9,1.062589,0,1,44,2,11,1
9,0.932672,0,2,66,3,10,1
9,1.087155,0,3,71,3,12,3
9,0.731846,0,1,100,1,2,5
9,0.735441,0,1,53,3,10,2
9,1.097326,0,3,120,2,1,7
9,1.351425,0,3,11,1,12,3
9,0.943609,0,3,24,1,12,4
9,1.10014,0,3,135,4,3,7
9,0.779011,0,1,136,4,3,6
9,0.814665,0,2,49,3,9,1
9,1.0616,1,3,15,1,9,3
9,1.032654,0,1,4,1,10,1
9,1.140053,0,3,26,2,9,4
9,1.176995,0,1,88,4,10,2
9,1.621818,0,1,105,1,2,5
9,1.052808,0,1,80,4,11,2
9,0.991289,0,3,47,2,12,4
9,1.140799,0,1,40,2,10,8
9,1.1528,0,1,116,2,1,5
9,0.987646,0,3,72,3,12,4
9,1.156665,0,1,65,3,10,2
9,1.158937,0,3,108,1,2,7
9,1.249058,0,3,63,3,9,3
9,1.000095,0,1,92,4,11,2
9,1.060036,0,2,31,2,11,2
9,1.37232,0,3,86,4,9,4
9,1.114823,0,1,68,3,11,2
9,1.442924,1,1,41,2,10,8
9,0.898861,0,1,5,1,10,1
9,1.141056,0,2,46,2,12,2
9,1.067438,0,3,111,2,1,7
9,1.151209,0,3,96,4,12,4
9,1.518059,0,1,64,3,10,2
9,0.999431,0,3,110,2,1,7
9,1.137802,0,3,99,1,2,7
9,1.261126,0,3,123,3,4,7
9,0.838813,0,2,85,4,9,8
9,1.046508,0,1,124,3,4,6
9,1.021463,0,2,102,1,2,6
9,0.812269,0,2,67,3,11,8
9,0.796989,0,1,45,2,11,1
9,1.038978,1,2,115,2,1,6
9,0.912604,0,1,141,4,3,6
9,0.699116,0,1,117,2,1,5
9,1.090032,0,2,130,3,4,5
9,1.121103,0,3,63,3,9,3
9,1.027681,0,3,143,4,3,7
9,1.006675,0,2,79,4,11,1
9,0.674418,0,2,22,1,12,2
9,0.921899,0,1,81,4,11,2
9,0.893054,0,2,82,4,12,8
9,0.895324,0,1,45,2,11,1
9,1.374312,0,1,4,1,10,1
9,1.006792,0,3,24,1,12,4
9,0.860547,0,2,25,2,9,2
9,1.388148,0,3,38,2,9,3
9,0.894153,0,2,54,3,10,8
9,0.811086,0,2,90,4,10,1
9,0.67195,0,1,41,2,10,8
9,0.79601,0,1,101,1,2,5
9,0.770163,0,2,91,4,11,8
9,0.746592,0,1,92,4,11,2
9,1.108819,0,3,144,4,3,7
9,0.928042,0,2,142,4,3,5
9,0.780844,0,1,105,1,2,5
9,3.066539,1,3,98,1,2,7
9,0.95222,0,2,133,4,3,5
9,0.59394,0,2,73,4,9,1
9,0.849025,0,2,30,2,10,2
9,1.072735,0,1,52,3,10,2
9,1.202391,0,3,59,3,12,4
9,0.937965,0,2,78,4,10,8
9,1.177953,0,3,50,3,9,3
9,1.030815,0,2,127,3,4,5
9,0.882229,0,1,40,2,10,8
9,0.789538,0,2,67,3,11,8
9,1.696708,0,3,75,4,9,4
9,0.97685,0,3,132,3,4,7
9,0.945783,0,3,71,3,12,3
9,0.745159,0,1,112,2,1,5
9,1.116694,0,3,11,1,12,3
9,0.714825,0,2,7,1,11,2
9,1.027846,0,3,122,3,4,7
9,0.828138,0,2,55,3,11,1
9,1.021918,0,1,8,1,11,8
9,0.758577,0,2,70,3,12,1
9,0.927634,0,3,119,2,1,7
9,0.971525,0,1,125,3,4,6
9,1.149962,1,1,69,3,11,2
9,1.112802,0,3,87,4,9,3
9,1.209268,0,3,36,2,12,3
9,0.771615,0,2,37,2,9,2
9,0.795405,0,2,43,2,11,2
9,0.966898,0,3,26,2,9,4
9,0.921119,0,2,49,3,9,1
9,0.905978,0,2,138,4,3,5
9,0.901084,0,1,5,1,10,1
9,1.003433,0,3,83,4,12,4
9,1.054889,0,3,51,3,9,4
9,1.083074,1,1,128,3,4,6
9,1.025742,0,1,141,4,3,6
9,0.856661,0,1,93,4,11,2
9,1.127848,0,3,27,2,9,4
9,0.827464,0,2,85,4,9,8
9,1.041442,0,1,124,3,4,6
9,1.006429,0,3,135,4,3,7
9,1.161743,0,3,120,2,1,7
9,1.103486,0,2,13,1,9,2
9,0.97648,0,1,64,3,10,2
9,1.007167,0,1,104,1,2,5
9,1.00707,0,1,28,2,10,1
9,0.850398,0,2,102,1,2,6
9,1.094197,0,1,53,3,10,2
9,0.954859,0,3,47,2,12,4
9,1.196774,0,3,131,3,4,7
9,0.774618,0,1,136,4,3,6
9,1.481618,1,1,33,2,11,8
9,0.82297,0,2,118,2,1,6
9,0.959228,0,1,57,3,11,2
9,0.927549,0,3,12,1,12,3
9,1.215938,0,2,34,2,12,2
9,1.027773,0,2,121,3,4,5
9,0.724455,0,2,139,4,3,5
9,0.895206,1,3,95,4,12,3
9,1.025311,0,3,74,4,9,3
9,0.982507,0,3,48,2,12,4
9,0.946768,0,2,61,3,9,8
9,1.611347,1,1,20,1,11,1
9,0.940621,0,3,60,3,12,3
9,0.796453,0,2,97,1,2,6
9,0.905197,0,3,107,1,2,7
9,1.078875,0,3,110,2,1,7
9,0.919386,0,1,116,2,1,5
9,0.715773,0,1,80,4,11,2
9,0.77046,0,2,109,2,1,6
9,1.267381,0,3,39,2,9,3
9,1.211174,0,1,65,3,10,2
9,0.795847,0,2,10,1,12,2
9,1.051637,0,1,100,1,2,5
9,1.062204,0,3,96,4,12,4
9,0.988965,0,3,84,4,12,3
9,1.021606,0,3,62,3,9,4
9,0.783663,0,2,31,2,11,2
9,0.907935,0,2,115,2,1,6
9,1.824427,0,1,140,4,3,6
9,1.029374,0,3,14,1,9,3
9,1.242001,0,1,117,2,1,5
9,0.818224,0,1,32,2,11,8
9,1.015242,0,2,58,3,12,8
9,1.127103,0,1,113,2,1,5
9,1.051906,0,3,3,1,9,4
9,0.7924,0,2,6,1,10,2
9,0.988063,0,2,66,3,10,1
9,0.90726,0,1,129,3,4,6
9,1.04072,0,3,111,2,1,7
9,1.310727,0,3,35,2,12,3
9,1.087705,0,3,15,1,9,3
9,1.238361,0,2,19,1,11,2
9,1.012648,0,1,17,1,10,8
9,1.249912,0,1,77,4,10,2
9,0.833747,0,1,88,4,10,2
9,0.93069,1,1,68,3,11,2
9,0.956805,0,3,86,4,9,4
9,0.846161,0,1,29,2,10,1
9,0.826248,0,2,103,1,2,6
9,1.246789,0,1,21,1,11,1
9,1.48751,1,2,1,1,9,2
9,1.234484,0,3,108,1,2,7
9,1.096166,0,2,114,2,1,6
9,0.617924,0,2,106,1,2,6
9,1.002848,0,2,18,1,10,2
9,1.16846,0,3,99,1,2,7
9,0.904189,0,1,76,4,10,2
9,1.05166,0,1,56,3,11,2
9,1.19202,0,3,23,1,12,4
9,0.932358,0,1,9,1,11,8
9,1.064378,0,2,94,4,12,1
9,1.275319,0,3,2,1,9,4
9,0.868223,0,1,16,1,10,8
9,1.050241,0,2,126,3,4,5
9,0.919914,0,3,134,4,3,7
9,0.75833,0,1,137,4,3,6
9,1.087439,0,3,72,3,12,4
9,0.870149,0,1,89,4,10,2
9,1.156663,0,3,123,3,4,7
9,0.872403,0,2,42,2,10,2
9,1.439081,0,1,44,2,11,1
9,0.813296,0,2,46,2,12,2
9,1.257968,0,1,8,1,11,8
9,0.714723,0,2,114,2,1,6
9,0.619982,0,2,91,4,11,8
9,0.99729,0,2,30,2,10,2
9,1.334092,0,3,51,3,9,4
9,0.835308,0,2,42,2,10,2
9,0.641795,0,2,94,4,12,1
9,0.905164,0,1,21,1,11,1
9,0.762327,0,1,116,2,1,5
9,1.163014,0,1,52,3,10,2
9,0.954841,0,2,19,1,11,2
9,0.875481,0,1,69,3,11,2
9,0.859033,0,2,126,3,4,5
9,0.859545,0,1,57,3,11,2
9,0.985253,0,3,74,4,9,3
9,0.761523,0,2,6,1,10,2
9,0.963345,0,3,108,1,2,7
9,0.806187,0,1,125,3,4,6
9,1.435098,0,1,124,3,4,6
9,0.79954,0,2,90,4,10,1
9,0.923227,0,1,77,4,10,2
9,1.497816,0,1,20,1,11,1
9,0.727474,0,2,118,2,1,6
9,1.121228,0,3,98,1,2,7
9,1.114878,0,3,27,2,9,4
9,1.001966,0,3,107,1,2,7
9,1.009389,0,1,101,1,2,5
9,1.157469,0,1,68,3,11,2
9,0.786768,0,2,10,1,12,2
9,0.660176,0,2,46,2,12,2
9,0.820374,0,2,142,4,3,5
9,0.524781,0,2,106,1,2,6
9,0.763022,0,1,100,1,2,5
9,0.938255,0,3,63,3,9,3
9,1.070488,0,3,2,1,9,4
9,0.885251,0,1,45,2,11,1
9,1.032322,0,2,85,4,9,8
9,0.802115,0,2,49,3,9,1
9,0.812873,1,2,22,1,12,2
9,1.065691,0,3,143,4,3,7
9,1.367651,0,3,39,2,9,3
9,0.792113,0,1,28,2,10,1
9,1.47671,1,3,111,2,1,7
9,1.153443,0,3,59,3,12,4
9,0.933604,0,1,136,4,3,6
9,0.99386,0,3,131,3,4,7
9,1.084683,0,1,32,2,11,8
9,1.495143,0,2,66,3,10,1
9,0.753453,0,2,78,4,10,8
9,0.798056,0,2,70,3,12,1
9,1.248558,0,3,24,1,12,4
9,1.105324,0,1,105,1,2,5
9,1.039947,0,3,71,3,12,3
9,0.955754,0,1,113,2,1,5
9,0.747023,0,1,89,4,10,2
9,0.751155,0,2,127,3,4,5
9,0.854418,0,2,37,2,9,2
9,1.457966,1,2,34,2,12,2
9,0.70132,0,1,80,4,11,2
9,1.069188,0,1,41,2,10,8
9,0.673133,0,2,103,1,2,6
9,1.061171,0,1,117,2,1,5
9,1.035326,0,1,92,4,11,2
9,0.909232,0,1,81,4,11,2
9,1.310624,0,3,120,2,1,7
9,1.036519,0,1,29,2,10,1
9,0.968828,0,1,104,1,2,5
9,1.429666,0,1,4,1,10,1
9,1.141204,0,2,58,3,12,8
9,0.827829,0,1,17,1,10,8
9,1.147143,0,3,110,2,1,7
9,1.020963,0,1,44,2,11,1
9,1.363973,0,1,64,3,10,2
9,1.183863,0,3,47,2,12,4
9,1.722239,0,3,99,1,2,7
9,1.527101,0,1,76,4,10,2
9,0.810597,0,2,13,1,9,2
9,1.068058,0,3,50,3,9,3
9,1.68076,0,2,61,3,9,8
9,0.993211,0,3,12,1,12,3
9,1.142853,0,3,119,2,1,7
9,1.083144,0,2,109,2,1,6
9,0.834135,0,1,140,4,3,6
9,1.768143,0,3,144,4,3,7
9,1.137452,0,1,112,2,1,5
9,0.926776,0,3,83,4,12,4
9,0.694355,0,2,115,2,1,6
9,0.834512,0,2,130,3,4,5
9,1.031834,0,3,96,4,12,4
9,0.767101,0,2,54,3,10,8
9,1.039544,0,3,86,4,9,4
9,1.146711,0,3,122,3,4,7
9,0.992926,0,3,11,1,12,3
9,1.193178,0,1,65,3,10,2
9,1.011719,0,3,135,4,3,7
9,0.955105,0,3,84,4,12,3
9,0.922578,0,1,56,3,11,2
9,0.781339,0,1,9,1,11,8
9,1.347003,0,3,75,4,9,4
9,0.82726,0,1,141,4,3,6
9,1.19417,0,3,3,1,9,4
9,0.999976,0,2,7,1,11,2
9,1.031183,0,3,14,1,9,3
9,1.0006,0,3,26,2,9,4
9,0.95879,0,2,138,4,3,5
9,0.771359,0,2,79,4,11,1
9,0.870007,0,1,53,3,10,2
9,1.200741,0,3,35,2,12,3
9,1.026779,0,3,87,4,9,3
9,0.972681,0,3,72,3,12,4
9,1.193777,0,3,62,3,9,4
9,0.913187,1,3,36,2,12,3
9,0.7471,0,1,5,1,10,1
9,0.936304,0,3,23,1,12,4
9,1.026197,0,2,82,4,12,8
9,0.944391,1,2,139,4,3,5
9,0.699601,0,2,102,1,2,6
9,0.828023,0,2,97,1,2,6
9,1.15104,0,2,18,1,10,2
9,0.774977,0,2,133,4,3,5
9,1.125582,0,3,123,3,4,7
9,0.5933,0,2,73,4,9,1
9,0.598749,0,1,137,4,3,6
9,0.661847,0,2,1,1,9,2
9,0.860978,0,3,132,3,4,7
9,0.994657,0,3,60,3,12,3
9,0.953757,0,3,48,2,12,4
9,0.844585,0,1,129,3,4,6
9,1.054863,0,3,38,2,9,3
9,0.913044,0,1,128,3,4,6
9,0.948087,0,3,134,4,3,7
9,0.822783,0,2,121,3,4,5
9,0.689082,0,2,55,3,11,1
9,0.689082,0,2,67,3,11,8
9,1.124747,0,3,95,4,12,3
9,0.771863,0,1,93,4,11,2
9,1.125377,1,1,16,1,10,8
9,0.807681,0,2,31,2,11,2
9,1.037197,0,1,88,4,10,2
9,0.911996,0,2,43,2,11,2
9,0.861918,0,1,33,2,11,8
9,0.926628,0,1,40,2,10,8
9,1.2705,0,3,15,1,9,3
9,1.000225,0,2,25,2,9,2
10,1.299404,1,1,8,1,11,8
10,1.223732,0,3,7,1,11,3
10,1.672914,0,2,57,3,11,1
10,1.048144,0,3,84,4,12,4
10,1.094403,0,2,54,3,10,8
10,0.876154,0,3,91,4,11,3
10,1.208793,0,1,88,4,10,2
10,0.976994,1,1,4,1,10,1
10,0.879406,0,3,72,3,12,3
10,1.114807,0,3,101,1,2,7
10,1.039075,0,2,13,1,9,2
10,1.11529,0,1,98,1,2,5
10,0.983459,1,1,95,4,12,2
10,1.284675,1,2,105,1,2,6
10,0.941433,0,1,140,4,3,6
10,0.958865,0,1,38,2,9,1
10,1.454046,0,3,77,4,10,3
10,1.284562,0,1,100,1,2,5
10,0.92268,0,2,34,2,12,2
10,1.823711,0,2,78,4,10,8
10,1.678817,0,3,111,2,1,7
10,1.129828,0,1,50,3,9,2
10,1.245364,0,1,131,3,4,6
10,1.142596,0,1,136,4,3,6
10,0.929929,0,1,11,1,12,1
10,1.196553,0,3,127,3,4,7
10,0.860515,0,2,82,4,12,1
10,1.731503,0,3,99,1,2,7
10,0.879297,1,2,129,3,4,5
10,0.901551,0,1,107,1,2,5
10,2.226652,1,1,20,1,11,1
10,0.796996,0,2,93,4,11,8
10,1.563154,0,2,22,1,12,2
10,1.895665,0,3,3,1,9,4
10,0.949861,0,2,21,1,11,2
10,1.454117,0,2,138,4,3,5
10,1.084049,0,1,59,3,12,2
10,1.096229,0,1,14,1,9,1
10,1.170618,0,3,87,4,9,4
10,1.199487,0,2,130,3,4,5
10,1.16484,0,3,48,2,12,3
10,0.911015,0,2,94,4,12,8
10,1.025483,0,1,26,2,9,8
10,0.933586,1,1,134,4,3,6
10,0.989436,0,2,45,2,11,2
10,1.516507,0,2,114,2,1,6
10,1.527243,0,2,58,3,12,1
10,1.063624,0,3,60,3,12,4
10,1.196449,1,2,30,2,10,2
10,1.471676,1,1,143,4,3,6
10,1.038625,0,3,36,2,12,4
10,1.020125,0,3,51,3,9,3
10,1.292746,0,2,25,2,9,2
10,1.240395,0,3,96,4,12,3
10,0.988425,0,1,68,3,11,2
10,0.889892,0,1,62,3,9,2
10,1.497215,1,1,71,3,12,2
10,1.030199,1,1,52,3,10,2
10,0.990326,0,3,31,2,11,3
10,1.180582,0,3,65,3,10,4
10,1.143199,1,2,90,4,10,1
10,1.182426,0,3,53,3,10,3
10,0.843913,0,2,10,1,12,2
10,0.989804,0,1,64,3,10,2
10,1.126191,0,2,126,3,4,5
10,1.048796,0,3,115,2,1,7
10,0.895453,0,2,6,1,10,2
10,0.860673,0,2,42,2,10,2
10,0.894593,0,1,86,4,9,2
10,1.091015,0,3,24,1,12,3
10,1.082976,0,3,19,1,11,4
10,1.242556,0,1,83,4,12,2
10,1.025915,0,1,104,1,2,5
10,1.075885,0,2,66,3,10,1
10,0.916557,0,1,32,2,11,8
10,1.180509,0,3,27,2,9,4
10,1.08704,0,3,103,1,2,7
10,1.322841,0,2,121,3,4,5
10,1.088953,1,3,75,4,9,3
10,1.114115,0,2,117,2,1,6
10,1.067159,0,1,124,3,4,6
10,0.938562,0,1,40,2,10,8
10,0.885448,0,1,44,2,11,1
10,1.015304,0,3,67,3,11,3
10,0.854026,0,1,35,2,12,1
10,1.09915,1,2,109,2,1,6
10,0.945757,0,3,144,4,3,7
10,0.84086,0,2,118,2,1,6
10,1.32209,0,2,1,1,9,2
10,0.893976,0,1,2,1,9,8
10,1.041904,0,3,108,1,2,7
10,1.86394,0,1,23,1,12,8
10,0.887022,0,2,33,2,11,2
10,0.844468,0,2,9,1,11,2
10,1.047763,1,2,97,1,2,6
10,0.832177,0,2,142,4,3,5
10,0.83073,0,1,122,3,4,6
10,1.034898,0,3,89,4,10,4
10,1.063021,1,3,43,2,11,4
10,1.491535,1,3,113,2,1,7
10,0.958937,0,3,132,3,4,7
10,1.648586,0,1,76,4,10,2
10,0.995975,0,1,110,2,1,5
10,0.975773,0,1,119,2,1,5
10,1.246944,0,2,49,3,9,8
10,2.092775,1,3,39,2,9,3
10,1.112086,0,3,123,3,4,7
10,1.248363,0,3,15,1,9,3
10,7.443721,0,2,61,3,9,1
10,1.09015,0,2,37,2,9,2
10,0.814279,0,1,116,2,1,5
10,0.786927,0,2,106,1,2,6
10,1.025437,0,3,12,1,12,4
10,1.057896,0,1,74,4,9,2
10,0.834682,0,2,46,2,12,2
10,1.08526,0,3,63,3,9,4
10,1.002101,0,2,18,1,10,2
10,0.884688,0,2,81,4,11,1
10,1.102262,0,1,80,4,11,2
10,0.884402,0,1,92,4,11,2
10,0.84221,0,2,141,4,3,5
10,1.068209,0,3,135,4,3,7
10,1.428525,0,2,102,1,2,6
10,1.027625,0,3,125,3,4,7
10,0.976322,0,3,5,1,10,3
10,1.104265,0,3,41,2,10,4
10,1.119441,1,1,112,2,1,5
10,1.056234,1,2,133,4,3,5
10,1.142322,1,3,29,2,10,3
10,0.908588,0,3,17,1,10,4
10,1.391731,0,1,56,3,11,2
10,0.970723,0,2,73,4,9,8
10,1.000328,0,1,128,3,4,6
10,1.101204,0,1,47,2,12,8
10,1.072285,1,3,120,2,1,7
10,1.062002,0,3,55,3,11,4
10,1.0884,0,3,79,4,11,4
10,1.397719,0,3,137,4,3,7
10,1.15131,0,2,85,4,9,1
10,1.085964,0,3,139,4,3,7
10,1.194104,0,1,28,2,10,1
10,0.935962,0,2,69,3,11,8
10,1.163709,0,1,16,1,10,8
10,0.997633,0,2,70,3,12,8
10,1.155283,0,3,89,4,10,4
10,1.159748,0,3,51,3,9,3
10,1.014071,0,1,76,4,10,2
10,1.032037,0,2,133,4,3,5
10,0.875235,0,2,6,1,10,2
10,0.836415,0,1,136,4,3,6
10,0.793063,0,1,83,4,12,2
10,0.977711,0,3,144,4,3,7
10,0.763586,0,1,62,3,9,2
10,1.03476,0,2,118,2,1,6
10,0.965631,0,2,117,2,1,6
10,1.230103,1,3,27,2,9,4
10,0.942662,0,2,141,4,3,5
10,1.560368,0,3,36,2,12,4
10,1.013587,0,1,32,2,11,8
10,1.795036,0,3,77,4,10,3
10,1.05487,0,1,104,1,2,5
10,0.922237,0,2,90,4,10,1
10,0.831093,0,2,114,2,1,6
10,0.895079,0,1,116,2,1,5
10,1.032097,0,2,109,2,1,6
10,1.890707,0,3,75,4,9,3
10,0.823002,0,2,81,4,11,1
10,1.580455,0,3,137,4,3,7
10,0.982871,0,1,52,3,10,2
10,1.07711,1,3,132,3,4,7
10,0.829766,0,1,122,3,4,6
10,0.956656,0,2,129,3,4,5
10,0.940254,0,1,92,4,11,2
10,0.799448,0,1,124,3,4,6
10,0.931629,0,2,45,2,11,2
10,1.291541,0,3,111,2,1,7
10,0.84697,0,1,38,2,9,1
10,0.785622,0,2,18,1,10,2
10,1.572858,0,3,103,1,2,7
10,0.949241,0,2,93,4,11,8
10,1.078877,0,3,72,3,12,3
10,1.03117,0,2,105,1,2,6
10,1.010264,0,3,91,4,11,3
10,0.884107,0,2,142,4,3,5
10,0.817583,0,2,49,3,9,8
10,0.992947,0,1,50,3,9,2
10,0.73077,0,2,121,3,4,5
10,0.845023,0,1,74,4,9,2
10,0.973282,0,3,41,2,10,4
10,1.006186,0,1,35,2,12,1
10,0.841107,0,1,134,4,3,6
10,0.786388,0,1,4,1,10,1
10,0.90123,0,3,12,1,12,4
10,0.719583,0,2,21,1,11,2
10,0.694779,0,1,14,1,9,1
10,0.91209,0,2,85,4,9,1
10,0.759284,0,2,25,2,9,2
10,1.388979,0,2,58,3,12,1
10,0.788571,0,1,11,1,12,1
10,1.195458,0,3,123,3,4,7
10,1.200931,1,3,55,3,11,4
10,1.190331,1,1,8,1,11,8
10,1.184956,0,3,60,3,12,4
10,0.871888,0,2,82,4,12,1
10,0.791948,0,2,61,3,9,1
10,0.681005,0,1,28,2,10,1
10,1.067845,0,1,128,3,4,6
10,1.556195,0,1,64,3,10,2
10,0.92709,0,2,106,1,2,6
10,0.848233,0,1,143,4,3,6
10,0.800648,0,2,138,4,3,5
10,0.997145,0,2,33,2,11,2
10,0.907229,0,2,126,3,4,5
10,1.267887,0,3,120,2,1,7
10,1.026111,0,1,59,3,12,2
10,0.970209,0,1,140,4,3,6
10,0.960095,0,2,57,3,11,1
10,1.683245,0,3,84,4,12,4
10,0.825521,0,2,22,1,12,2
10,1.132477,0,3,127,3,4,7
10,0.867348,0,1,20,1,11,1
10,0.861996,0,1,86,4,9,2
10,1.22839,1,3,31,2,11,3
10,1.195779,0,3,125,3,4,7
10,1.313692,0,2,42,2,10,2
10,0.951012,0,3,63,3,9,4
10,1.327012,0,1,100,1,2,5
10,1.27305,0,1,56,3,11,2
10,0.741942,0,1,80,4,11,2
10,1.036966,0,3,99,1,2,7
10,1.305824,1,3,15,1,9,3
10,1.135525,1,3,29,2,10,3
10,0.93904,0,2,69,3,11,8
10,1.241172,1,2,54,3,10,8
10,0.831078,0,1,112,2,1,5
10,1.28023,0,3,115,2,1,7
10,0.822502,0,2,70,3,12,8
10,0.953825,0,1,40,2,10,8
10,1.154279,0,3,19,1,11,4
10,0.847501,0,1,68,3,11,2
10,1.116028,1,1,131,3,4,6
10,1.068121,0,3,24,1,12,3
10,1.019886,0,3,39,2,9,3
10,0.968162,0,3,17,1,10,4
10,1.080591,0,1,119,2,1,5
10,1.06319,0,3,139,4,3,7
10,0.829552,0,2,78,4,10,8
10,0.999034,0,3,87,4,9,4
10,0.713559,0,1,2,1,9,8
10,0.874701,0,1,98,1,2,5
10,1.086997,0,3,53,3,10,3
10,0.826025,0,2,9,1,11,2
10,0.981424,0,3,7,1,11,3
10,0.934932,0,2,13,1,9,2
10,0.719851,0,2,102,1,2,6
10,0.897692,0,3,67,3,11,3
10,0.880301,0,3,65,3,10,4
10,0.775744,0,2,10,1,12,2
10,0.824494,0,2,1,1,9,2
10,0.714151,0,2,30,2,10,2
10,1.006694,0,3,48,2,12,3
10,0.798172,0,1,44,2,11,1
10,1.34929,0,1,95,4,12,2
10,1.075539,0,3,135,4,3,7
10,0.762839,0,1,23,1,12,8
10,0.862309,0,3,43,2,11,4
10,1.144489,0,1,26,2,9,8
10,1.383173,0,2,97,1,2,6
10,0.850808,0,1,107,1,2,5
10,0.834652,0,3,96,4,12,3
10,0.743595,0,1,47,2,12,8
10,1.101552,0,3,3,1,9,4
10,0.830775,1,3,5,1,10,3
10,0.771054,0,2,73,4,9,8
10,0.914688,0,1,16,1,10,8
10,0.786101,0,2,94,4,12,8
10,0.910479,0,3,108,1,2,7
10,0.872248,0,2,37,2,9,2
10,1.377732,0,1,71,3,12,2
10,1.861017,1,1,110,2,1,5
10,0.811478,0,2,46,2,12,2
10,0.766058,0,2,130,3,4,5
10,0.927761,0,3,113,2,1,7
10,0.79617,0,2,66,3,10,1
10,0.864879,0,2,34,2,12,2
10,0.924284,0,1,88,4,10,2
10,1.269422,0,3,79,4,11,4
10,0.982233,0,3,101,1,2,7
10,0.917658,0,1,119,2,1,5
10,0.95675,0,2,54,3,10,8
10,0.899659,0,3,39,2,9,3
10,0.818621,0,2,94,4,12,8
10,0.838159,0,1,136,4,3,6
10,0.775371,0,2,102,1,2,6
10,0.807696,0,1,52,3,10,2
10,1.751295,0,3,132,3,4,7
10,1.457088,1,3,91,4,11,3
10,0.764463,0,1,143,4,3,6
10,0.948907,0,1,80,4,11,2
10,0.991565,0,2,114,2,1,6
10,1.122301,0,2,18,1,10,2
10,0.832802,0,3,55,3,11,4
10,0.828054,0,3,101,1,2,7
10,0.730696,0,1,47,2,12,8
10,0.701072,0,1,4,1,10,1
10,1.524994,0,3,12,1,12,4
10,0.84921,0,1,26,2,9,8
10,1.600726,0,3,27,2,9,4
10,0.727547,0,2,42,2,10,2
10,1.151705,0,3,77,4,10,3
10,0.887798,0,1,140,4,3,6
10,0.7826,0,2,30,2,10,2
10,0.741855,0,1,122,3,4,6
10,0.693905,0,2,57,3,11,1
10,0.709993,0,2,130,3,4,5
10,0.751488,0,3,17,1,10,4
10,0.746896,0,2,58,3,12,1
10,2.003009,1,2,78,4,10,8
10,0.7601,0,2,85,4,9,1
10,0.843031,0,2,33,2,11,2
10,0.95731,0,2,142,4,3,5
10,0.843042,0,1,74,4,9,2
10,0.954941,0,3,103,1,2,7
10,0.784992,0,1,64,3,10,2
10,0.719958,0,1,83,4,12,2
10,0.919123,0,3,63,3,9,4
10,0.743514,0,1,28,2,10,1
10,0.614325,0,2,61,3,9,1
10,0.88002,0,3,5,1,10,3
10,0.700105,0,1,107,1,2,5
10,0.585543,0,2,133,4,3,5
10,0.991385,0,1,56,3,11,2
10,1.052978,0,1,104,1,2,5
10,0.640167,0,2,34,2,12,2
10,1.062513,0,3,125,3,4,7
10,0.960099,0,3,123,3,4,7
10,0.767628,0,1,23,1,12,8
10,0.69515,0,2,118,2,1,6
10,0.972338,0,3,99,1,2,7
10,0.808227,0,1,88,4,10,2
10,0.934662,0,1,32,2,11,8
10,0.694199,0,2,45,2,11,2
10,0.726162,0,1,11,1,12,1
10,0.646258,0,2,25,2,9,2
10,0.693435,0,1,8,1,11,8
10,1.007558,0,3,84,4,12,4
10,1.054863,0,3,48,2,12,3
10,0.70729,0,1,92,4,11,2
10,0.836894,0,3,31,2,11,3
10,0.766856,0,3,29,2,10,3
10,0.799587,0,3,36,2,12,4
10,0.885528,0,3,139,4,3,7
10,1.653353,0,3,24,1,12,3
10,1.168284,0,3,113,2,1,7
10,1.005571,0,3,144,4,3,7
10,0.781337,0,2,97,1,2,6
10,1.274656,0,1,59,3,12,2
10,1.396441,0,3,7,1,11,3
10,0.746889,0,1,131,3,4,6
10,0.702686,0,2,138,4,3,5
10,0.738949,0,2,109,2,1,6
10,1.131634,1,2,105,1,2,6
10,0.802707,0,3,89,4,10,4
10,0.827646,0,1,38,2,9,1
10,0.777235,0,2,69,3,11,8
10,0.884017,0,3,65,3,10,4
10,1.058453,0,3,41,2,10,4
10,1.326308,0,1,86,4,9,2
10,0.911552,0,3,43,2,11,4
10,1.07458,0,3,51,3,9,3
10,1.046231,0,3,72,3,12,3
10,0.880649,0,2,37,2,9,2
10,0.770071,0,1,62,3,9,2
10,1.018461,0,3,15,1,9,3
10,1.491213,1,3,75,4,9,3
10,0.914304,0,3,120,2,1,7
10,0.815589,0,2,46,2,12,2
10,0.839183,0,2,9,1,11,2
10,0.818992,0,1,95,4,12,2
10,0.755978,0,2,126,3,4,5
10,0.778945,0,1,110,2,1,5
10,0.636297,0,1,44,2,11,1
10,0.660861,0,1,128,3,4,6
10,1.513805,0,3,135,4,3,7
10,1.231807,0,3,96,4,12,3
10,1.158276,0,1,76,4,10,2
10,1.792552,0,3,111,2,1,7
10,0.902467,0,2,90,4,10,1
10,0.732669,0,2,49,3,9,8
10,1.111479,0,2,22,1,12,2
10,1.127904,0,1,35,2,12,1
10,0.75218,0,1,71,3,12,2
10,1.039098,0,1,2,1,9,8
10,1.142544,0,1,116,2,1,5
10,0.738182,0,1,134,4,3,6
10,0.888106,0,2,73,4,9,8
10,1.260298,0,2,129,3,4,5
10,0.999226,0,2,13,1,9,2
10,1.317674,0,3,3,1,9,4
10,0.821522,0,2,10,1,12,2
10,0.773191,0,1,50,3,9,2
10,1.027882,0,3,115,2,1,7
10,0.773968,0,2,66,3,10,1
10,1.237889,0,3,108,1,2,7
10,0.962414,0,3,127,3,4,7
10,0.876582,0,1,68,3,11,2
10,1.243575,0,3,87,4,9,4
10,0.778207,0,2,141,4,3,5
10,1.457069,0,1,20,1,11,1
10,1.278146,0,3,53,3,10,3
10,1.016084,0,2,6,1,10,2
10,0.685129,0,2,1,1,9,2
10,0.734489,0,1,16,1,10,8
10,1.083272,0,2,117,2,1,6
10,1.242598,0,1,112,2,1,5
10,0.976625,0,1,14,1,9,1
10,0.722376,0,1,100,1,2,5
10,0.668345,0,2,82,4,12,1
10,0.808754,0,1,40,2,10,8
10,1.09397,0,3,19,1,11,4
10,0.801003,0,3,137,4,3,7
10,1.029809,0,3,60,3,12,4
10,0.847559,0,1,124,3,4,6
10,0.77788,0,2,81,4,11,1
10,1.459254,1,2,93,4,11,8
10,0.896803,0,1,98,1,2,5
10,0.650616,0,2,106,1,2,6
10,0.65838,0,2,21,1,11,2
10,1.044853,0,3,67,3,11,3
10,0.784641,0,2,70,3,12,8
10,0.910616,0,3,79,4,11,4
10,0.998211,0,2,121,3,4,5
10,0.864032,0,3,127,3,4,7
10,1.017948,0,3,60,3,12,4
10,1.046869,0,3,29,2,10,3
10,0.812121,0,1,107,1,2,5
10,0.838321,0,1,128,3,4,6
10,1.070276,0,2,90,4,10,1
10,0.896819,0,3,53,3,10,3
10,0.822858,0,2,69,3,11,8
10,1.034746,0,3,63,3,9,4
10,0.995809,0,3,79,4,11,4
10,0.862555,0,2,1,1,9,2
10,0.783323,0,2,9,1,11,2
10,1.459829,0,3,99,1,2,7
10,0.74368,0,2,78,4,10,8
10,0.888918,0,2,21,1,11,2
10,0.779933,0,2,58,3,12,1
10,0.685749,0,2,46,2,12,2
10,0.879313,0,1,76,4,10,2
10,0.971423,0,1,62,3,9,2
10,1.122705,0,3,144,4,3,7
10,1.27418,0,1,35,2,12,1
10,0.96351,0,3,96,4,12,3
10,0.813628,0,1,86,4,9,2
10,1.136914,0,1,119,2,1,5
10,0.916795,0,3,84,4,12,4
10,1.393968,0,3,3,1,9,4
10,0.769564,0,2,33,2,11,2
10,0.837583,1,3,48,2,12,3
10,0.790528,0,1,38,2,9,1
10,0.802159,0,2,45,2,11,2
10,1.685261,1,2,126,3,4,5
10,0.767771,0,1,98,1,2,5
10,0.824558,0,2,54,3,10,8
10,1.221497,0,2,129,3,4,5
10,1.035634,0,2,102,1,2,6
10,0.76259,0,1,32,2,11,8
10,0.776535,0,2,13,1,9,2
10,0.835384,0,2,130,3,4,5
10,0.830236,0,1,14,1,9,1
10,0.803011,0,2,117,2,1,6
10,0.782256,0,1,59,3,12,2
10,1.102723,0,3,135,4,3,7
10,1.085707,0,2,138,4,3,5
10,0.715522,0,2,66,3,10,1
10,0.680343,0,1,112,2,1,5
10,0.739513,0,2,85,4,9,1
10,0.985154,0,1,56,3,11,2
10,1.372278,0,3,103,1,2,7
10,0.905998,0,2,105,1,2,6
10,0.917199,0,3,43,2,11,4
10,0.758345,0,2,106,1,2,6
10,1.195828,0,3,89,4,10,4
10,0.76882,0,1,88,4,10,2
10,0.870536,0,1,50,3,9,2
10,0.681128,0,1,40,2,10,8
10,0.76084,0,2,114,2,1,6
10,1.292195,0,3,51,3,9,3
10,0.794341,0,1,52,3,10,2
10,1.272211,0,3,24,1,12,3
10,1.200158,0,3,5,1,10,3
10,1.006922,0,3,27,2,9,4
10,0.802802,0,1,140,4,3,6
10,0.950516,0,3,132,3,4,7
10,1.029023,0,2,133,4,3,5
10,0.773553,0,2,42,2,10,2
10,1.015924,0,3,15,1,9,3
10,0.992818,0,1,44,2,11,1
10,1.16266,0,3,108,1,2,7
10,1.126683,0,1,74,4,9,2
10,1.401412,0,3,36,2,12,4
10,0.956803,0,2,94,4,12,8
10,1.017744,0,2,49,3,9,8
10,0.754642,0,1,104,1,2,5
10,0.816146,0,2,93,4,11,8
10,0.722727,0,2,142,4,3,5
10,1.018996,0,1,11,1,12,1
10,0.80895,0,1,71,3,12,2
10,1.071861,0,3,111,2,1,7
10,0.776589,0,3,120,2,1,7
10,1.044055,0,1,124,3,4,6
10,1.026764,0,1,134,4,3,6
10,1.35641,0,3,12,1,12,4
10,0.77404,0,2,121,3,4,5
10,0.874061,0,1,131,3,4,6
10,1.17021,0,3,113,2,1,7
10,0.913059,0,3,72,3,12,3
10,1.080117,0,3,19,1,11,4
10,1.236745,0,3,123,3,4,7
10,1.183145,0,3,17,1,10,4
10,0.770634,0,2,118,2,1,6
10,0.722959,0,2,22,1,12,2
10,0.894289,0,3,65,3,10,4
10,0.900829,0,1,26,2,9,8
10,0.777368,0,1,28,2,10,1
10,0.853375,1,1,80,4,11,2
10,1.541686,0,3,77,4,10,3
10,1.497602,1,3,41,2,10,4
10,0.900709,0,1,2,1,9,8
10,0.821322,0,2,25,2,9,2
10,0.89618,0,1,95,4,12,2
10,0.764644,0,1,23,1,12,8
10,0.927483,0,3,55,3,11,4
10,0.818286,0,3,139,4,3,7
10,0.890696,0,1,136,4,3,6
10,1.58982,0,3,125,3,4,7
10,1.005997,0,3,39,2,9,3
10,0.819417,0,1,116,2,1,5
10,0.856905,0,1,4,1,10,1
10,0.83869,0,2,57,3,11,1
10,0.895506,0,1,20,1,11,1
10,1.252721,0,3,137,4,3,7
10,1.083042,0,2,30,2,10,2
10,0.663853,0,1,100,1,2,5
10,0.925792,0,1,92,4,11,2
10,1.055459,0,2,82,4,12,1
10,1.198666,0,3,67,3,11,3
10,0.858146,0,2,109,2,1,6
10,0.770105,0,2,81,4,11,1
10,1.026543,0,3,87,4,9,4
10,0.744768,0,2,37,2,9,2
10,0.933069,0,3,91,4,11,3
10,0.71015,0,2,97,1,2,6
10,0.71277,0,1,68,3,11,2
10,1.029258,0,1,143,4,3,6
10,0.662338,0,2,34,2,12,2
10,0.632756,0,1,83,4,12,2
10,0.794592,0,3,101,1,2,7
10,0.787274,0,1,16,1,10,8
10,0.681065,0,1,122,3,4,6
10,1.15644,0,3,75,4,9,3
10,0.687391,0,2,10,1,12,2
10,0.971255,0,1,64,3,10,2
10,1.019135,0,3,31,2,11,3
10,0.665257,0,2,73,4,9,8
10,0.647111,1,2,141,4,3,5
10,0.716173,0,2,70,3,12,8
10,0.683946,0,1,47,2,12,8
10,0.743007,0,2,18,1,10,2
10,1.148294,1,1,110,2,1,5
10,0.754741,0,2,6,1,10,2
10,0.987168,0,3,115,2,1,7
10,1.197086,0,3,7,1,11,3
10,0.779171,0,2,61,3,9,1
10,1.159384,0,1,8,1,11,8
11,1.149034,0,3,129,3,4,7
11,1.310931,0,2,143,4,3,5
11,0.900204,0,3,46,2,12,4
11,0.810541,0,3,94,4,12,3
11,0.791854,0,3,70,3,12,3
11,0.817936,0,1,139,4,3,6
11,0.754524,0,2,35,2,12,2
11,0.709657,0,3,123,3,4,7
11,0.713988,1,1,134,4,3,6
11,1.123786,0,1,49,3,9,2
11,0.806551,0,1,36,2,12,8
11,0.757569,0,2,54,3,10,8
11,0.852661,0,1,110,2,1,5
11,0.60634,0,1,67,3,11,2
11,0.730658,0,2,47,2,12,2
11,0.562013,0,2,119,2,1,6
11,1.01119,1,3,45,2,11,4
11,1.118404,0,1,133,4,3,6
11,0.874773,0,2,6,1,10,2
11,0.942995,0,3,106,1,2,7
11,1.134474,0,1,13,1,9,1
11,0.922587,0,3,27,2,9,4
11,0.71595,0,2,32,2,11,2
11,0.939284,0,3,100,1,2,7
11,0.976397,0,3,22,1,12,4
11,1.324352,0,2,138,4,3,5
11,0.728536,0,3,82,4,12,4
11,0.789993,0,1,103,1,2,5
11,0.703222,0,3,118,2,1,7
11,0.757149,0,3,52,3,10,4
11,0.977067,0,3,10,1,12,3
11,0.900966,0,1,25,2,9,8
11,0.672205,0,1,61,3,9,2
11,1.040673,0,2,18,1,10,2
11,0.832858,0,3,105,1,2,7
11,0.656335,0,1,74,4,9,2
11,0.728265,1,2,42,2,10,2
11,0.801293,0,1,96,4,12,2
11,0.768113,0,3,57,3,11,3
11,1.028936,0,1,86,4,9,2
11,1.159664,1,3,15,1,9,3
11,0.796888,0,1,73,4,9,2
11,1.007855,1,1,12,1,12,8
11,0.522863,0,1,121,3,4,6
11,0.779294,0,3,88,4,10,3
11,1.150309,0,1,2,1,9,1
11,1.01961,1,2,66,3,10,1
11,0.909248,0,2,89,4,10,1
11,1.162323,1,2,128,3,4,5
11,0.75367,0,2,131,3,4,5
11,1.030255,0,1,37,2,9,1
11,1.379745,0,2,114,2,1,6
11,1.027817,0,2,92,4,11,8
11,0.717231,0,2,116,2,1,6
11,0.775901,1,1,31,2,11,1
11,1.425116,1,2,78,4,10,8
11,1.109217,0,2,68,3,11,8
11,0.881214,0,3,75,4,9,3
11,0.740926,0,2,95,4,12,8
11,0.790948,0,3,142,4,3,7
11,0.973811,1,2,90,4,10,1
11,0.875286,1,1,109,2,1,5
11,1.044781,1,1,84,4,12,2
11,1.532229,0,1,62,3,9,2
11,0.987453,0,1,7,1,11,1
11,0.930775,0,2,44,2,11,2
11,0.797043,0,3,111,2,1,7
11,0.948359,0,1,38,2,9,8
11,0.835277,0,2,65,3,10,1
11,0.983764,0,3,4,1,10,4
11,1.298373,0,3,3,1,9,4
11,0.825071,0,1,48,2,12,1
11,0.6539,0,2,77,4,10,8
11,0.925091,0,3,136,4,3,7
11,0.916961,0,3,34,2,12,3
11,1.111955,0,3,64,3,10,3
11,1.104721,0,1,26,2,9,1
11,0.982664,0,3,9,1,11,3
11,0.789791,0,2,41,2,10,2
11,0.933048,0,1,122,3,4,6
11,0.815492,0,1,85,4,9,2
11,0.854043,0,3,63,3,9,4
11,0.826443,0,2,56,3,11,1
11,0.787569,0,2,125,3,4,5
11,0.737937,0,1,97,1,2,5
11,0.754125,0,2,71,3,12,8
11,1.063775,0,3,76,4,10,4
11,1.042827,0,3,99,1,2,7
11,0.716757,0,1,24,1,12,1
11,0.844593,0,1,127,3,4,6
11,0.721205,0,2,53,3,10,8
11,0.595802,0,1,50,3,9,2
11,0.858235,0,3,58,3,12,4
11,0.777804,0,1,91,4,11,2
11,0.743075,0,3,28,2,10,4
11,0.760552,1,2,11,1,12,2
11,0.719883,0,2,126,3,4,5
11,0.897667,0,1,60,3,12,2
11,0.647182,0,2,29,2,10,2
11,0.772723,0,2,8,1,11,2
11,0.762424,1,1,14,1,9,8
11,1.079186,0,1,120,2,1,5
11,0.901607,0,3,124,3,4,7
11,0.907989,0,3,130,3,4,7
11,0.903895,0,3,21,1,11,4
11,0.816757,0,3,93,4,11,4
11,0.974084,0,2,140,4,3,5
11,0.68353,0,2,30,2,10,2
11,0.87434,0,2,101,1,2,6
11,0.574763,0,2,137,4,3,5
11,0.661825,0,2,102,1,2,6
11,0.91783,0,3,81,4,11,3
11,0.745955,1,1,132,3,4,6
11,1.029359,0,2,23,1,12,2
11,0.783735,0,3,135,4,3,7
11,0.92743,0,1,1,1,9,8
11,1.244722,1,1,19,1,11,8
11,0.997783,0,3,51,3,9,3
11,1.009758,0,3,39,2,9,3
11,0.889464,0,1,43,2,11,8
11,1.067281,1,2,104,1,2,6
11,1.097834,0,2,59,3,12,1
11,0.587765,0,2,80,4,11,1
11,1.043228,0,1,55,3,11,2
11,0.749306,0,2,83,4,12,1
11,0.594589,0,2,107,1,2,6
11,0.930896,0,3,40,2,10,3
11,0.903033,0,3,112,2,1,7
11,0.790129,0,3,69,3,11,4
11,0.693063,0,3,33,2,11,3
11,0.893456,0,3,141,4,3,7
11,0.729604,0,1,79,4,11,2
11,0.920139,0,3,117,2,1,7
11,1.148599,0,2,5,1,10,2
11,0.910611,0,1,115,2,1,5
11,0.718173,0,2,17,1,10,2
11,1.071359,0,3,16,1,10,3
11,0.789794,0,2,113,2,1,6
11,0.750694,0,2,20,1,11,2
11,0.763559,0,1,144,4,3,6
11,0.908246,0,3,87,4,9,4
11,0.714994,0,1,108,1,2,5
11,1.027939,0,1,98,1,2,5
11,0.596867,0,1,72,3,12,2
11,0.829482,0,1,96,4,12,2
11,0.631875,0,2,114,2,1,6
11,0.703846,0,2,53,3,10,8
11,0.736936,0,1,103,1,2,5
11,0.595952,0,2,126,3,4,5
11,0.678676,0,3,141,4,3,7
11,0.75726,0,1,19,1,11,8
11,0.818664,0,3,129,3,4,7
11,0.875387,0,3,105,1,2,7
11,0.621499,0,1,122,3,4,6
11,0.799755,0,3,69,3,11,4
11,0.736783,0,1,43,2,11,8
11,0.809134,0,3,124,3,4,7
11,1.092783,0,1,60,3,12,2
11,0.752175,0,1,84,4,12,2
11,0.663884,0,1,132,3,4,6
11,0.746343,0,3,82,4,12,4
11,0.749813,0,2,42,2,10,2
11,0.855622,0,3,33,2,11,3
11,0.741202,0,2,83,4,12,1
11,0.766649,0,1,121,3,4,6
11,0.678883,0,2,5,1,10,2
11,0.606272,0,2,138,4,3,5
11,0.532988,0,2,77,4,10,8
11,0.738128,0,2,17,1,10,2
11,1.029103,0,3,4,1,10,4
11,0.923692,0,2,47,2,12,2
11,0.707717,0,2,66,3,10,1
11,0.739399,1,2,107,1,2,6
11,0.825278,0,3,106,1,2,7
11,0.770284,0,1,73,4,9,2
11,0.80735,0,3,22,1,12,4
11,0.746814,0,1,12,1,12,8
11,0.901553,0,3,100,1,2,7
11,0.805466,0,1,79,4,11,2
11,0.734314,0,3,57,3,11,3
11,0.747589,0,1,36,2,12,8
11,0.65138,0,1,120,2,1,5
11,1.048025,0,1,38,2,9,8
11,0.759513,0,3,87,4,9,4
11,0.770919,1,2,41,2,10,2
11,0.968378,0,3,136,4,3,7
11,1.322038,0,1,72,3,12,2
11,0.868572,0,3,76,4,10,4
11,0.792346,0,2,113,2,1,6
11,0.709721,0,1,108,1,2,5
11,0.70451,0,1,26,2,9,1
11,0.953193,0,2,59,3,12,1
11,0.808432,0,3,135,4,3,7
11,0.799288,0,3,39,2,9,3
11,0.940175,0,3,94,4,12,3
11,0.82693,0,2,68,3,11,8
11,0.614449,0,2,44,2,11,2
11,0.712616,0,1,91,4,11,2
11,0.876375,0,1,50,3,9,2
11,0.647971,0,1,74,4,9,2
11,0.810936,0,3,15,1,9,3
11,0.723178,0,3,75,4,9,3
11,0.873909,0,2,101,1,2,6
11,0.789904,0,2,102,1,2,6
11,0.908697,0,3,142,4,3,7
11,0.826555,0,3,88,4,10,3
11,0.806717,0,3,9,1,11,3
11,0.979435,0,1,7,1,11,1
11,0.92797,0,1,25,2,9,8
11,0.599662,0,1,48,2,12,1
11,0.736814,0,2,18,1,10,2
11,0.591713,0,2,78,4,10,8
11,0.584755,0,2,125,3,4,5
11,0.71813,0,2,119,2,1,6
11,0.707906,0,1,1,1,9,8
11,0.709969,0,3,93,4,11,4
11,0.731136,1,1,14,1,9,8
11,0.699129,0,2,140,4,3,5
11,0.7787,0,1,85,4,9,2
11,0.799469,0,1,127,3,4,6
11,0.683136,0,2,80,4,11,1
11,0.754031,0,3,117,2,1,7
11,0.647811,0,1,139,4,3,6
11,0.623504,0,1,109,2,1,5
11,0.730598,0,3,112,2,1,7
11,1.026011,0,2,54,3,10,8
11,0.632462,0,2,71,3,12,8
11,0.588863,0,2,11,1,12,2
11,0.725806,0,1,134,4,3,6
11,0.604971,0,2,23,1,12,2
11,0.736754,0,1,37,2,9,1
11,0.588282,0,2,30,2,10,2
11,0.737188,0,3,63,3,9,4
11,0.986846,0,2,131,3,4,5
11,0.675407,0,2,20,1,11,2
11,0.733556,0,3,34,2,12,3
11,0.67821,0,2,104,1,2,6
11,0.585745,0,2,143,4,3,5
11,0.72067,0,2,65,3,10,1
11,0.622281,0,2,35,2,12,2
11,0.796784,0,3,111,2,1,7
11,0.773218,0,1,62,3,9,2
11,0.586849,0,2,89,4,10,1
11,0.974759,0,1,67,3,11,2
11,0.759882,0,3,10,1,12,3
11,1.191385,0,1,61,3,9,2
11,0.71503,0,1,133,4,3,6
11,0.735867,0,2,116,2,1,6
11,0.616366,0,2,56,3,11,1
11,0.728168,0,1,110,2,1,5
11,0.743253,0,2,137,4,3,5
11,0.66754,0,1,55,3,11,2
11,0.577406,0,2,128,3,4,5
11,0.5673,0,2,92,4,11,8
11,0.683756,0,1,24,1,12,1
11,0.663697,0,3,45,2,11,4
11,0.723838,0,2,90,4,10,1
11,0.745773,1,1,97,1,2,5
11,0.859602,0,1,144,4,3,6
11,0.792226,0,3,58,3,12,4
11,0.775686,0,3,118,2,1,7
11,0.837406,0,1,13,1,9,1
11,0.693591,0,2,95,4,12,8
11,0.604089,0,1,49,3,9,2
11,0.639604,0,1,2,1,9,1
11,0.855468,0,3,46,2,12,4
11,0.764813,0,3,99,1,2,7
11,0.970281,0,3,21,1,11,4
11,0.861916,0,2,29,2,10,2
11,0.77892,0,3,16,1,10,3
11,0.68777,0,3,28,2,10,4
11,0.668272,0,3,130,3,4,7
11,0.687215,0,1,31,2,11,1
11,0.6662,0,1,115,2,1,5
11,0.660581,0,3,51,3,9,3
11,0.663691,0,3,81,4,11,3
11,0.645363,0,1,98,1,2,5
11,0.682406,0,3,27,2,9,4
11,1.002125,0,2,8,1,11,2
11,0.694586,0,3,3,1,9,4
11,0.844269,0,3,64,3,10,3
11,0.730137,0,3,123,3,4,7
11,1.106242,0,3,52,3,10,4
11,0.816934,0,1,86,4,9,2
11,0.624487,0,2,32,2,11,2
11,0.741124,0,3,70,3,12,3
11,0.723285,1,2,6,1,10,2
11,0.774329,0,3,40,2,10,3
11,0.645862,0,2,59,3,12,1
11,0.519269,0,2,20,1,11,2
11,0.828339,0,1,48,2,12,1
11,0.72214,0,1,13,1,9,1
11,0.665151,0,1,26,2,9,1
11,0.994538,1,1,108,1,2,5
11,0.738232,0,2,78,4,10,8
11,0.736011,0,3,124,3,4,7
11,0.94547,0,2,143,4,3,5
11,0.705917,0,3,81,4,11,3
11,0.753779,0,3,33,2,11,3
11,0.772801,0,3,142,4,3,7
11,0.960777,0,2,137,4,3,5
11,0.85756,0,3,70,3,12,3
11,0.836371,0,1,24,1,12,1
11,0.858546,0,1,91,4,11,2
11,0.707474,0,2,119,2,1,6
11,0.651325,0,1,127,3,4,6
11,0.652537,0,1,110,2,1,5
11,0.731013,0,1,96,4,12,2
11,0.643543,0,2,53,3,10,8
11,0.636704,0,1,55,3,11,2
11,0.695011,0,1,19,1,11,8
11,0.811544,0,1,2,1,9,1
11,0.600404,0,2,23,1,12,2
11,0.727197,0,3,100,1,2,7
11,1.041276,0,2,107,1,2,6
11,0.675249,0,2,41,2,10,2
11,0.747387,0,1,37,2,9,1
11,0.732729,0,3,75,4,9,3
11,0.996552,0,1,1,1,9,8
11,0.713519,0,3,27,2,9,4
11,0.668376,0,2,6,1,10,2
11,0.653015,0,1,7,1,11,1
11,0.636129,0,2,8,1,11,2
11,0.651946,0,1,132,3,4,6
11,0.666787,0,3,45,2,11,4
11,0.714878,0,1,73,4,9,2
11,0.795727,0,3,94,4,12,3
11,0.829976,0,1,50,3,9,2
11,0.68818,0,1,134,4,3,6
11,0.60616,0,3,63,3,9,4
11,0.700107,1,2,54,3,10,8
11,0.685746,0,1,115,2,1,5
11,0.859007,0,2,114,2,1,6
11,0.752151,0,3,10,1,12,3
11,1.061355,1,1,97,1,2,5
11,0.780568,0,3,76,4,10,4
11,0.977418,0,3,46,2,12,4
11,0.694602,0,1,49,3,9,2
11,0.804742,0,3,105,1,2,7
11,0.663929,0,2,125,3,4,5
11,0.644729,0,1,38,2,9,8
11,0.620641,0,2,77,4,10,8
11,0.617292,0,2,83,4,12,1
11,0.574162,0,2,5,1,10,2
11,0.916568,0,1,36,2,12,8
11,0.664048,1,2,104,1,2,6
11,0.708881,0,3,69,3,11,4
11,0.636933,0,3,93,4,11,4
11,0.715866,0,2,71,3,12,8
11,0.630512,0,3,117,2,1,7
11,0.654709,0,3,106,1,2,7
11,0.587235,0,2,30,2,10,2
11,0.661249,0,3,118,2,1,7
11,0.738529,0,1,121,3,4,6
11,0.575355,0,3,21,1,11,4
11,0.755887,0,3,130,3,4,7
11,0.680463,0,3,87,4,9,4
11,0.565541,0,1,25,2,9,8
11,1.322541,0,2,92,4,11,8
11,0.955162,0,3,16,1,10,3
11,0.995313,0,2,17,1,10,2
11,0.69901,0,1,144,4,3,6
11,0.623301,0,2,89,4,10,1
11,0.614908,0,3,141,4,3,7
11,0.896901,0,2,66,3,10,1
11,0.670886,0,3,136,4,3,7
11,0.69098,0,1,12,1,12,8
11,0.638558,0,1,109,2,1,5
11,0.754862,0,3,15,1,9,3
11,0.702461,0,2,65,3,10,1
11,0.754672,0,3,112,2,1,7
11,0.682795,0,1,133,4,3,6
11,1.015482,1,1,31,2,11,1
11,0.613952,0,2,56,3,11,1
11,0.716518,0,3,123,3,4,7
11,1.328502,0,2,113,2,1,6
11,0.736949,0,1,103,1,2,5
11,0.587221,0,2,80,4,11,1
11,0.710173,0,2,128,3,4,5
11,0.621225,0,3,3,1,9,4
11,0.867929,0,3,40,2,10,3
11,0.629354,0,3,135,4,3,7
11,1.197702,0,1,120,2,1,5
11,0.676884,0,2,32,2,11,2
11,0.531982,0,2,44,2,11,2
11,0.608277,0,2,126,3,4,5
11,0.697661,0,3,57,3,11,3
11,0.621672,0,3,39,2,9,3
11,0.724276,0,1,67,3,11,2
11,0.749537,0,3,9,1,11,3
11,0.700464,0,2,29,2,10,2
11,0.770147,0,1,79,4,11,2
11,0.898483,0,1,84,4,12,2
11,0.704439,0,3,82,4,12,4
11,0.812281,1,2,11,1,12,2
11,0.640688,0,1,43,2,11,8
11,0.746062,0,2,140,4,3,5
11,0.647832,0,3,99,1,2,7
11,0.713393,0,3,4,1,10,4
11,0.695108,0,2,35,2,12,2
11,0.869094,0,3,34,2,12,3
11,0.719711,0,1,72,3,12,2
11,0.75665,0,3,51,3,9,3
11,0.641084,0,1,86,4,9,2
11,0.794715,0,3,52,3,10,4
11,0.669047,1,2,138,4,3,5
11,0.698662,0,3,88,4,10,3
11,0.738384,0,1,74,4,9,2
11,0.736382,0,3,58,3,12,4
11,0.9312,0,1,61,3,9,2
11,0.696009,0,1,98,1,2,5
11,0.736341,0,2,68,3,11,8
11,0.597634,0,2,116,2,1,6
11,0.550504,0,2,131,3,4,5
11,0.66163,0,3,111,2,1,7
11,0.918474,0,1,62,3,9,2
11,0.758852,0,2,101,1,2,6
11,0.656324,0,3,129,3,4,7
11,0.746319,0,3,28,2,10,4
11,0.893348,0,2,90,4,10,1
11,0.944672,0,3,64,3,10,3
11,0.610166,0,2,42,2,10,2
11,0.83178,0,3,22,1,12,4
11,0.65975,0,1,122,3,4,6
11,0.982782,0,1,85,4,9,2
11,0.626502,0,2,18,1,10,2
11,0.652067,0,2,47,2,12,2
11,0.619299,0,1,14,1,9,8
11,0.565975,0,2,102,1,2,6
11,0.650996,0,1,60,3,12,2
11,0.677718,0,1,139,4,3,6
11,0.63841,0,2,95,4,12,8
11,0.634541,0,2,116,2,1,6
11,0.649177,0,3,33,2,11,3
11,0.914238,0,3,142,4,3,7
11,0.646974,0,1,62,3,9,2
11,0.677269,0,2,101,1,2,6
11,0.650808,0,3,117,2,1,7
11,0.704213,0,1,72,3,12,2
11,0.812474,0,3,94,4,12,3
11,0.688104,0,1,43,2,11,8
11,0.631096,0,1,121,3,4,6
11,0.705123,0,3,112,2,1,7
11,0.704261,0,3,135,4,3,7
11,0.738806,0,3,100,1,2,7
11,0.589406,0,2,65,3,10,1
11,0.674249,0,3,28,2,10,4
11,0.705921,1,3,129,3,4,7
11,0.666959,0,2,11,1,12,2
11,0.675023,0,3,63,3,9,4
11,0.685584,0,1,36,2,12,8
11,0.832438,0,3,4,1,10,4
11,0.680941,0,1,91,4,11,2
11,0.720793,0,2,95,4,12,8
11,0.614713,0,1,109,2,1,5
11,0.698696,0,3,69,3,11,4
11,0.560969,0,1,61,3,9,2
11,0.68321,0,1,24,1,12,1
11,0.630501,0,1,1,1,9,8
11,0.682754,0,1,122,3,4,6
11,0.635668,0,3,81,4,11,3
11,0.607514,0,1,2,1,9,1
11,1.216005,0,1,120,2,1,5
11,0.831616,0,3,82,4,12,4
11,0.682175,0,3,70,3,12,3
11,0.695051,0,2,80,4,11,1
11,0.701655,0,1,31,2,11,1
11,0.635571,0,2,92,4,11,8
11,0.60351,0,3,87,4,9,4
11,0.901203,0,3,141,4,3,7
11,0.673034,0,1,134,4,3,6
11,0.682973,0,2,113,2,1,6
11,0.709274,0,3,27,2,9,4
11,0.704161,0,3,106,1,2,7
11,0.736404,0,1,110,2,1,5
11,0.686115,0,3,58,3,12,4
11,0.625558,0,1,48,2,12,1
11,0.615828,0,3,118,2,1,7
11,0.722024,0,1,60,3,12,2
11,0.611881,0,2,35,2,12,2
11,0.708201,0,1,50,3,9,2
11,0.796742,0,3,64,3,10,3
11,0.958924,0,2,47,2,12,2
11,0.565712,0,1,73,4,9,2
11,0.652133,0,2,125,3,4,5
11,0.609656,0,1,37,2,9,1
11,0.578633,0,1,96,4,12,2
11,0.652,0,3,45,2,11,4
11,0.707816,1,1,67,3,11,2
11,0.659372,0,2,56,3,11,1
11,0.570297,1,2,126,3,4,5
11,0.768507,0,2,5,1,10,2
11,0.624164,0,3,57,3,11,3
11,0.659276,0,3,99,1,2,7
11,0.726143,0,3,51,3,9,3
11,0.755865,0,1,103,1,2,5
11,0.707287,0,3,123,3,4,7
11,0.76867,0,3,34,2,12,3
11,0.782152,0,3,10,1,12,3
11,0.77805,0,3,136,4,3,7
11,0.842731,1,2,66,3,10,1
11,0.848723,0,3,16,1,10,3
11,0.780645,0,2,23,1,12,2
11,0.654555,0,2,68,3,11,8
11,0.694237,0,2,42,2,10,2
11,0.746353,0,1,7,1,11,1
11,1.027294,0,1,108,1,2,5
11,0.64049,0,2,20,1,11,2
11,0.644385,0,2,6,1,10,2
11,0.572844,0,2,54,3,10,8
11,0.787431,0,1,19,1,11,8
11,0.633333,0,1,14,1,9,8
11,0.615887,0,2,18,1,10,2
11,0.620787,0,2,29,2,10,2
11,0.731295,0,1,144,4,3,6
11,0.566248,0,2,30,2,10,2
11,0.6422,0,1,132,3,4,6
11,0.734093,0,1,12,1,12,8
11,0.580096,0,2,71,3,12,8
11,0.593506,1,3,130,3,4,7
11,0.744145,0,3,40,2,10,3
11,0.602852,0,1,25,2,9,8
11,0.811878,1,1,74,4,9,2
11,0.667155,0,3,75,4,9,3
11,0.840043,0,2,17,1,10,2
11,0.590693,0,2,107,1,2,6
11,0.744562,0,3,88,4,10,3
11,0.651239,0,3,9,1,11,3
11,0.706993,0,1,79,4,11,2
11,0.818032,0,2,131,3,4,5
11,0.679197,0,2,77,4,10,8
11,1.025283,0,1,133,4,3,6
11,0.799694,0,1,115,2,1,5
11,0.726412,0,1,38,2,9,8
11,0.554111,0,1,55,3,11,2
11,0.645827,0,2,102,1,2,6
11,0.616607,0,1,86,4,9,2
11,0.882251,0,3,22,1,12,4
11,0.767009,0,3,124,3,4,7
11,0.743163,0,1,97,1,2,5
11,0.571244,0,1,26,2,9,1
11,0.689711,0,2,78,4,10,8
11,0.731854,0,1,13,1,9,1
11,0.594951,1,2,53,3,10,8
11,0.630018,0,2,90,4,10,1
11,0.630889,0,2,143,4,3,5
11,0.737165,0,3,105,1,2,7
11,0.628425,0,1,98,1,2,5
11,0.699426,0,2,32,2,11,2
11,0.630524,0,3,93,4,11,4
11,0.850531,0,1,84,4,12,2
11,0.565978,0,2,138,4,3,5
11,0.642872,1,2,104,1,2,6
11,0.825222,0,3,46,2,12,4
