name,rt,correct_key,error,trial,pair1,pair2,trial_types,validity
50,1.075675,2,0,40,4,10,1,1
50,0.547454,1,0,7,1,11,1,1
50,0.639102,1,0,91,4,11,0,2
50,0.831776,2,0,13,2,9,1,1
50,0.665792,2,0,9,1,11,1,1
50,0.641625,2,0,28,3,10,1,1
50,0.530781,1,0,115,2,1,2,2
50,0.69619,1,0,80,3,11,2,2
50,0.694833,2,0,102,1,2,3,2
50,0.548855,1,0,50,1,9,1,1
50,0.466024,1,0,1,1,9,1,1
50,0.442492,2,0,44,4,11,1,1
50,0.803852,2,0,17,2,10,1,1
50,0.846276,2,0,96,4,12,0,2
50,0.630517,2,0,86,4,9,2,2
50,0.591183,2,0,30,3,10,1,1
50,0.555011,2,0,8,1,11,1,1
50,0.344009,2,1,63,2,9,1,1
50,0.613526,1,0,120,2,1,1,1
50,0.598815,2,0,117,2,1,1,1
50,2.200855,2,0,51,1,9,2,2
50,0.691951,2,0,53,1,10,3,2
50,0.66747,2,0,52,1,10,0,2
50,0.619556,1,0,26,3,9,1,1
50,0.541489,1,0,32,3,11,1,1
50,0.626103,2,0,142,4,3,2,2
50,0.628812,2,0,87,4,9,3,2
50,0.558038,1,0,71,2,12,2,2
50,0.658891,2,0,129,3,4,2,2
50,0.682622,1,0,112,2,1,3,2
50,0.626745,1,0,69,2,11,1,1
50,1.476547,2,0,39,4,9,1,1
50,0.876082,1,0,68,2,11,0,2
50,0.636689,1,0,109,2,1,2,2
50,0.470196,1,0,14,2,9,1,1
50,0.613928,1,0,78,3,10,3,2
50,0.799727,2,0,105,1,2,2,2
50,0.666108,1,0,55,1,11,0,2
50,0.665723,1,0,31,3,11,1,1
50,0.545323,1,0,141,4,3,3,2
50,0.535625,1,0,88,4,10,3,2
50,0.820689,2,0,140,4,3,3,2
50,0.725929,1,0,130,3,4,3,2
50,0.652883,1,0,58,1,12,0,2
50,0.517249,1,0,121,3,4,2,2
50,0.61107,2,0,67,2,11,3,2
50,0.652429,1,0,4,1,10,1,1
50,0.845598,2,0,23,2,12,1,1
50,0.645924,2,0,64,2,10,3,2
50,0.575183,2,0,110,2,1,3,2
50,0.954344,1,0,35,3,12,1,1
50,0.615772,2,0,82,3,12,0,2
50,0.633498,2,0,22,2,12,1,1
50,0.531025,2,0,131,3,4,3,2
50,0.560199,2,0,107,1,2,1,1
50,0.580853,2,0,43,4,11,1,1
50,0.567447,1,0,66,2,10,0,2
50,0.55572,1,0,101,1,2,1,1
50,0.584425,2,0,74,3,9,0,2
50,0.51616,1,0,47,4,12,1,1
50,0.569876,1,0,85,4,9,2,2
50,0.63766,1,0,38,4,9,1,1
50,0.567417,2,0,95,4,12,1,1
50,0.531523,2,0,41,4,10,1,1
50,0.464405,1,0,127,3,4,1,1
50,0.608296,1,0,135,4,3,1,1
50,1.041636,1,0,125,3,4,3,2
50,0.651087,2,0,79,3,11,2,2
50,0.93972,2,0,136,4,3,3,2
50,0.640905,2,0,59,1,12,3,2
50,0.76211,1,0,93,4,11,0,2
50,0.877695,1,0,34,3,12,1,1
50,0.881196,2,0,103,1,2,2,2
50,0.496683,1,0,84,3,12,0,2
50,0.583306,1,0,92,4,11,1,1
50,0.874915,2,0,113,2,1,2,2
50,0.642954,2,0,139,4,3,1,1
50,0.55514,2,0,108,1,2,1,1
50,0.703909,2,0,48,4,12,1,1
50,0.527243,2,0,61,2,9,2,2
50,0.613695,1,0,42,4,10,1,1
50,0.527131,1,0,143,4,3,2,2
50,0.749507,1,0,99,1,2,2,2
50,0.537503,1,0,15,2,9,1,1
50,0.542907,2,0,29,3,10,1,1
50,0.668359,1,0,97,1,2,3,2
50,0.492193,1,0,77,3,10,1,1
50,0.739108,2,0,62,2,9,0,2
50,0.51284,1,0,104,1,2,1,1
50,0.454978,1,0,46,4,12,1,1
50,0.630857,2,0,124,3,4,1,1
50,0.776224,1,0,98,1,2,2,2
50,0.516232,1,0,6,1,10,1,1
50,0.562989,1,0,49,1,9,2,2
50,0.526575,2,0,5,1,10,1,1
50,1.23675,1,0,20,2,11,1,1
50,1.109791,1,0,18,2,10,1,1
50,0.692781,1,0,118,2,1,1,1
50,0.587342,2,0,123,3,4,3,2
50,0.550577,1,0,75,3,9,0,2
50,0.76288,2,0,100,1,2,3,2
50,0.51113,2,0,72,2,12,1,1
50,0.557236,1,0,144,4,3,2,2
50,0.962575,2,0,60,1,12,1,1
50,0.63021,2,0,3,1,9,1,1
50,0.535164,1,0,128,3,4,1,1
50,0.476528,1,0,10,1,12,1,1
50,0.572116,2,0,76,3,10,1,1
50,0.744588,2,0,25,3,9,1,1
50,0.485325,2,0,2,1,9,1,1
50,0.541125,2,0,94,4,12,0,2
50,0.586087,2,0,133,4,3,1,1
50,0.558192,2,0,57,1,11,1,1
50,0.489674,1,0,11,1,12,1,1
50,0.682034,2,0,116,2,1,3,2
50,0.473271,1,0,89,4,10,1,1
50,0.897383,2,0,119,2,1,2,2
50,0.583538,1,0,19,2,11,1,1
50,0.786758,1,0,36,3,12,1,1
50,0.630033,1,0,106,1,2,3,2
50,0.559238,1,0,56,1,11,0,2
50,1.06805,1,0,81,3,11,1,1
50,0.627587,1,0,37,4,9,1,1
50,0.613417,2,0,24,2,12,1,1
50,0.528197,2,0,33,3,11,1,1
50,0.549117,2,0,21,2,11,1,1
50,0.498234,1,0,45,4,11,1,1
50,0.624469,2,0,134,4,3,2,2
50,0.618403,1,0,138,4,3,1,1
50,0.572099,1,0,65,2,10,0,2
50,1.296383,1,0,114,2,1,3,2
50,0.719223,2,0,111,2,1,1,1
50,0.52502,1,0,126,3,4,2,2
50,0.930143,2,0,12,1,12,1,1
50,0.56846,2,0,70,2,12,1,1
50,0.676469,2,0,122,3,4,2,2
50,0.604005,2,0,132,3,4,1,1
50,0.574813,1,0,137,4,3,3,2
50,0.634753,2,0,83,3,12,1,1
50,0.54018,1,0,16,2,10,1,1
50,0.520538,2,0,27,3,9,1,1
50,0.430877,1,0,54,1,10,1,1
50,0.624809,2,0,73,3,9,3,2
50,0.602465,2,0,90,4,10,1,1
50,0.637385,2,0,2,1,9,1,1
50,0.614171,1,0,104,1,2,1,1
50,0.559543,1,0,114,2,1,3,2
50,0.533086,1,0,84,3,12,0,2
50,0.553981,2,0,30,3,10,1,1
50,0.566722,1,0,97,1,2,3,2
50,0.522941,2,0,27,3,9,1,1
50,0.664303,1,0,7,1,11,1,1
50,0.616412,2,0,64,2,10,3,2
50,0.578851,2,0,86,4,9,2,2
50,0.581693,2,0,103,1,2,2,2
50,0.728949,2,0,24,2,12,1,1
50,0.437119,2,0,23,2,12,1,1
50,0.479294,1,0,10,1,12,1,1
50,1.046174,2,0,43,4,11,1,1
50,0.495293,2,0,51,1,9,2,2
50,0.534308,2,0,132,3,4,1,1
50,0.827648,2,0,83,3,12,1,1
50,0.510369,1,0,42,4,10,1,1
50,0.972062,2,0,100,1,2,3,2
50,0.600597,2,0,110,2,1,3,2
50,0.611829,2,0,96,4,12,0,2
50,0.469669,1,0,121,3,4,2,2
50,0.532905,2,0,39,4,9,1,1
50,0.522784,1,0,35,3,12,1,1
50,0.512828,1,0,115,2,1,2,2
50,0.534945,1,0,54,1,10,1,1
50,0.500651,1,0,125,3,4,3,2
50,0.410433,1,0,89,4,10,1,1
50,0.613341,1,0,20,2,11,1,1
50,0.5182,1,0,46,4,12,1,1
50,0.621,2,0,134,4,3,2,2
50,0.5912,2,0,124,3,4,1,1
50,1.441737,2,0,123,3,4,3,2
50,0.443517,1,0,128,3,4,1,1
50,0.580518,1,0,56,1,11,0,2
50,0.520385,1,0,49,1,9,2,2
50,0.598064,2,0,139,4,3,1,1
50,0.616635,1,0,34,3,12,1,1
50,0.769806,1,0,19,2,11,1,1
50,0.870751,1,0,98,1,2,2,2
50,1.246194,2,0,82,3,12,0,2
50,0.959236,2,0,107,1,2,1,1
50,0.547199,1,0,126,3,4,2,2
50,0.823923,2,0,90,4,10,1,1
50,0.922702,1,0,31,3,11,1,1
50,0.575787,2,0,29,3,10,1,1
50,0.660098,2,0,17,2,10,1,1
50,0.492775,1,0,80,3,11,2,2
50,0.69883,2,0,53,1,10,3,2
50,0.593021,1,0,16,2,10,1,1
50,0.748756,1,0,112,2,1,3,2
50,0.577102,1,0,32,3,11,1,1
50,0.532633,1,0,127,3,4,1,1
50,0.834794,2,0,73,3,9,3,2
50,0.779748,2,0,102,1,2,3,2
50,0.61554,1,0,88,4,10,3,2
50,0.576775,1,0,6,1,10,1,1
50,0.797419,1,0,91,4,11,0,2
50,1.32693,1,0,63,2,9,1,1
50,0.485024,1,0,138,4,3,1,1
50,0.699592,1,0,4,1,10,1,1
50,0.498679,1,0,36,3,12,1,1
50,0.609651,1,0,135,4,3,1,1
50,0.460066,1,0,101,1,2,1,1
50,0.403969,1,0,69,2,11,1,1
50,0.663104,2,0,72,2,12,1,1
50,0.703147,2,0,67,2,11,3,2
50,0.613977,2,0,129,3,4,2,2
50,0.432096,1,0,68,2,11,0,2
50,0.640611,1,0,109,2,1,2,2
50,0.674296,2,0,9,1,11,1,1
50,0.540137,2,0,117,2,1,1,1
50,0.465011,2,0,25,3,9,1,1
50,0.441719,2,1,78,3,10,3,2
50,0.730728,2,0,131,3,4,3,2
50,0.600038,2,0,3,1,9,1,1
50,0.530075,2,0,48,4,12,1,1
50,0.608042,2,0,105,1,2,2,2
50,0.473904,1,0,120,2,1,1,1
50,0.46569,1,0,37,4,9,1,1
50,0.586384,1,0,45,4,11,1,1
50,0.613585,1,0,137,4,3,3,2
50,0.583678,2,0,22,2,12,1,1
50,0.754527,2,0,94,4,12,0,2
50,0.695733,1,0,58,1,12,0,2
50,0.526056,1,0,93,4,11,0,2
50,0.491933,1,0,92,4,11,1,1
50,0.627374,2,0,79,3,11,2,2
50,0.692621,2,0,113,2,1,2,2
50,0.516037,1,0,14,2,9,1,1
50,0.713657,1,0,144,4,3,2,2
50,0.712276,1,0,106,1,2,3,2
50,0.55761,2,0,44,4,11,1,1
50,0.634617,1,0,66,2,10,0,2
50,0.644287,2,0,108,1,2,1,1
50,0.525878,1,0,118,2,1,1,1
50,0.475957,1,0,50,1,9,1,1
50,0.65145,2,0,52,1,10,0,2
50,0.524296,2,0,57,1,11,1,1
50,0.530035,1,0,65,2,10,0,2
50,0.550763,1,0,47,4,12,1,1
50,0.571421,2,0,70,2,12,1,1
50,0.728035,2,0,62,2,9,0,2
50,0.445076,1,0,1,1,9,1,1
50,0.558825,2,0,142,4,3,2,2
50,0.522503,2,0,95,4,12,1,1
50,0.440517,1,0,71,2,12,2,2
50,0.514071,2,0,140,4,3,3,2
50,0.584517,2,0,87,4,9,3,2
50,0.627686,1,0,11,1,12,1,1
50,0.549333,2,0,8,1,11,1,1
50,0.522034,1,0,55,1,11,0,2
50,0.543694,2,0,76,3,10,1,1
50,0.589909,2,0,61,2,9,2,2
50,0.648671,1,0,15,2,9,1,1
50,0.609564,2,0,133,4,3,1,1
50,0.571224,1,0,143,4,3,2,2
50,0.528253,1,0,77,3,10,1,1
50,0.525711,1,0,81,3,11,1,1
50,0.651836,2,0,60,1,12,1,1
50,0.700886,2,0,116,2,1,3,2
50,0.482494,1,0,75,3,9,0,2
50,0.658562,1,0,130,3,4,3,2
50,0.611357,2,0,13,2,9,1,1
50,0.709929,2,0,59,1,12,3,2
50,0.683543,2,0,21,2,11,1,1
50,0.811433,2,0,111,2,1,1,1
50,0.566796,2,0,41,4,10,1,1
50,0.562199,1,0,99,1,2,2,2
50,0.663176,2,0,40,4,10,1,1
50,0.830988,2,0,119,2,1,2,2
50,0.535914,1,0,38,4,9,1,1
50,0.628555,2,0,136,4,3,3,2
50,0.399163,2,0,5,1,10,1,1
50,0.497944,2,0,33,3,11,1,1
50,0.824259,2,0,12,1,12,1,1
50,0.490424,1,0,18,2,10,1,1
50,0.705977,1,0,85,4,9,2,2
50,0.74426,1,0,141,4,3,3,2
50,0.662001,2,0,74,3,9,0,2
50,0.877833,2,0,28,3,10,1,1
50,0.58199,2,0,122,3,4,2,2
50,0.690023,1,0,26,3,9,1,1
50,0.523697,1,0,42,4,10,1,1
50,0.448869,1,0,89,4,10,1,1
50,0.514328,2,0,5,1,10,1,1
50,0.495916,1,0,32,3,11,1,1
50,0.462709,1,0,88,4,10,3,2
50,0.798549,2,0,52,1,10,0,2
50,0.538041,1,0,121,3,4,2,2
50,0.638566,1,0,141,4,3,3,2
50,0.648398,2,0,74,3,9,0,2
50,0.680584,1,0,45,4,11,1,1
50,0.440219,1,0,18,2,10,1,1
50,0.456805,1,0,114,2,1,3,2
50,0.44184,1,0,84,3,12,0,2
50,0.57096,2,0,111,2,1,1,1
50,0.438825,1,0,20,2,11,1,1
50,0.760489,2,0,33,3,11,1,1
50,0.61296,2,0,61,2,9,2,2
50,0.615178,2,0,129,3,4,2,2
50,0.609177,2,0,8,1,11,1,1
50,0.659898,2,0,17,2,10,1,1
50,0.523629,2,0,119,2,1,2,2
50,0.689789,1,0,75,3,9,0,2
50,0.530077,1,0,97,1,2,3,2
50,0.654503,2,0,108,1,2,1,1
50,0.655446,2,0,51,1,9,2,2
50,0.719229,2,0,76,3,10,1,1
50,0.541387,1,0,26,3,9,1,1
50,0.611052,2,0,27,3,9,1,1
50,0.446147,1,0,37,4,9,1,1
50,0.774384,1,0,99,1,2,2,2
50,0.538919,2,0,79,3,11,2,2
50,0.471243,2,0,22,2,12,1,1
50,0.615573,2,0,110,2,1,3,2
50,0.473109,1,0,65,2,10,0,2
50,0.562052,1,0,4,1,10,1,1
50,0.501692,1,0,58,1,12,0,2
50,0.674995,2,0,73,3,9,3,2
50,0.3792,1,0,135,4,3,1,1
50,0.518738,1,0,36,3,12,1,1
50,0.844636,2,0,123,3,4,3,2
50,0.613927,2,0,83,3,12,1,1
50,0.615341,2,0,131,3,4,3,2
50,0.570262,2,0,103,1,2,2,2
50,0.469858,1,0,14,2,9,1,1
50,0.685744,2,0,140,4,3,3,2
50,0.524614,2,0,29,3,10,1,1
50,0.626993,2,0,86,4,9,2,2
50,0.653043,1,0,38,4,9,1,1
50,0.590214,2,0,82,3,12,0,2
50,0.696548,2,0,9,1,11,1,1
50,0.815329,2,0,72,2,12,1,1
50,0.649402,1,0,106,1,2,3,2
50,0.618268,1,0,56,1,11,0,2
50,0.516227,1,0,31,3,11,1,1
50,0.946139,1,0,143,4,3,2,2
50,0.758118,1,0,137,4,3,3,2
50,0.683331,2,0,3,1,9,1,1
50,0.818495,2,0,12,1,12,1,1
50,0.740601,2,0,57,1,11,1,1
50,0.513682,1,0,55,1,11,0,2
50,0.519122,1,0,130,3,4,3,2
50,0.509298,1,0,69,2,11,1,1
50,0.85174,1,0,115,2,1,2,2
50,0.757008,2,0,113,2,1,2,2
50,0.680934,2,0,107,1,2,1,1
50,0.664824,2,0,62,2,9,0,2
50,0.456614,1,0,101,1,2,1,1
50,0.545312,1,0,81,3,11,1,1
50,0.933953,1,0,118,2,1,1,1
50,0.939124,2,0,105,1,2,2,2
50,0.871975,2,0,136,4,3,3,2
50,0.512316,1,0,7,1,11,1,1
50,0.42126,1,0,6,1,10,1,1
50,0.535127,2,0,21,2,11,1,1
50,0.603591,2,0,87,4,9,3,2
50,0.646818,1,0,11,1,12,1,1
50,0.447282,2,0,28,3,10,1,1
50,0.512386,1,0,109,2,1,2,2
50,0.438497,1,0,92,4,11,1,1
50,0.431124,1,0,10,1,12,1,1
50,0.816328,2,0,100,1,2,3,2
50,0.506817,1,0,120,2,1,1,1
50,0.552635,2,0,122,3,4,2,2
50,0.437559,1,0,19,2,11,1,1
50,0.454517,1,0,46,4,12,1,1
50,0.431949,1,0,104,1,2,1,1
50,0.529403,2,0,25,3,9,1,1
50,0.670295,2,0,116,2,1,3,2
50,0.454184,2,0,90,4,10,1,1
50,0.414768,1,0,50,1,9,1,1
50,0.793106,1,0,47,4,12,1,1
50,0.58816,2,0,24,2,12,1,1
50,0.638885,2,0,102,1,2,3,2
50,0.520393,2,0,70,2,12,1,1
50,0.590847,2,0,59,1,12,3,2
50,0.609271,2,0,67,2,11,3,2
50,0.620347,2,0,13,2,9,1,1
50,0.566602,2,0,139,4,3,1,1
50,0.818479,2,0,94,4,12,0,2
50,0.58879,2,0,142,4,3,2,2
50,0.47214,2,0,30,3,10,1,1
50,0.448153,2,0,48,4,12,1,1
50,0.632149,1,0,15,2,9,1,1
50,0.70516,1,0,71,2,12,2,2
50,0.735502,1,0,138,4,3,1,1
50,1.260876,2,0,64,2,10,3,2
50,1.349881,2,0,2,1,9,1,1
50,0.690778,1,0,78,3,10,3,2
50,0.601186,1,0,54,1,10,1,1
50,0.821043,2,0,134,4,3,2,2
50,0.582458,1,0,85,4,9,2,2
50,0.969956,2,0,133,4,3,1,1
50,0.645459,2,0,40,4,10,1,1
50,0.502361,1,0,66,2,10,0,2
50,1.516926,1,0,80,3,11,2,2
50,0.635409,2,0,95,4,12,1,1
50,0.660875,2,0,132,3,4,1,1
50,0.413051,2,0,43,4,11,1,1
50,0.758622,1,0,127,3,4,1,1
50,0.660097,2,0,23,2,12,1,1
50,0.820368,2,0,60,1,12,1,1
50,0.501441,1,0,35,3,12,1,1
50,0.589244,1,0,112,2,1,3,2
50,0.50344,1,0,126,3,4,2,2
50,0.734585,1,0,49,1,9,2,2
50,0.708313,2,0,44,4,11,1,1
50,0.897979,1,0,68,2,11,0,2
50,0.521439,1,0,98,1,2,2,2
50,1.151335,1,0,91,4,11,0,2
50,0.956189,1,0,144,4,3,2,2
50,0.456776,1,0,1,1,9,1,1
50,1.265342,1,0,93,4,11,0,2
50,0.51264,1,0,34,3,12,1,1
50,0.615077,2,0,96,4,12,0,2
50,0.664975,2,0,117,2,1,1,1
50,0.513224,1,0,63,2,9,1,1
50,0.655182,1,0,128,3,4,1,1
50,0.55162,1,0,16,2,10,1,1
50,1.819541,2,0,41,4,10,1,1
50,1.766037,1,0,77,3,10,1,1
50,0.697743,2,0,124,3,4,1,1
50,0.928405,2,0,53,1,10,3,2
50,0.902181,2,0,39,4,9,1,1
50,0.596322,1,0,125,3,4,3,2
50,1.075104,2,0,27,3,9,1,1
50,0.403407,1,0,14,2,9,1,1
50,0.501072,2,0,25,3,9,1,1
50,0.459468,1,0,50,1,9,1,1
50,0.596589,2,0,95,4,12,1,1
50,0.470415,1,0,75,3,9,0,2
50,0.430522,1,0,35,3,12,1,1
50,0.591743,2,0,53,1,10,3,2
50,0.531553,2,0,76,3,10,1,1
50,0.52905,2,0,142,4,3,2,2
50,0.518595,2,0,74,3,9,0,2
50,0.427871,2,0,117,2,1,1,1
50,0.501352,1,0,143,4,3,2,2
50,0.475977,2,0,133,4,3,1,1
50,0.483385,2,0,44,4,11,1,1
50,0.570719,2,0,119,2,1,2,2
50,0.375667,1,0,138,4,3,1,1
50,0.52269,2,0,94,4,12,0,2
50,0.433705,1,0,37,4,9,1,1
50,0.45863,1,0,98,1,2,2,2
50,0.65957,1,0,93,4,11,0,2
50,0.555265,2,0,87,4,9,3,2
50,0.480703,2,0,24,2,12,1,1
50,0.407626,1,0,20,2,11,1,1
50,0.514474,1,0,55,1,11,0,2
50,0.4167,1,0,56,1,11,0,2
50,0.465519,2,0,12,1,12,1,1
50,0.538096,2,0,70,2,12,1,1
50,0.455409,1,0,49,1,9,2,2
50,0.632172,1,0,15,2,9,1,1
50,0.520931,2,0,64,2,10,3,2
50,0.494528,2,0,72,2,12,1,1
50,0.438959,1,0,80,3,11,2,2
50,0.439709,1,0,120,2,1,1,1
50,0.51273,2,0,3,1,9,1,1
50,0.519206,2,0,139,4,3,1,1
50,0.524669,2,0,111,2,1,1,1
50,0.451066,1,0,114,2,1,3,2
50,0.418554,1,0,126,3,4,2,2
50,0.421263,1,0,46,4,12,1,1
50,0.326802,1,1,100,1,2,3,2
50,0.556857,1,0,118,2,1,1,1
50,0.689365,2,0,28,3,10,1,1
50,0.648802,2,0,108,1,2,1,1
50,0.544904,1,0,91,4,11,0,2
50,0.717979,1,0,42,4,10,1,1
50,0.452528,1,0,77,3,10,1,1
50,0.660511,1,0,68,2,11,0,2
50,0.429357,1,0,58,1,12,0,2
50,0.414402,1,0,6,1,10,1,1
50,0.608276,2,0,83,3,12,1,1
50,1.155417,2,0,90,4,10,1,1
50,0.656268,2,0,102,1,2,3,2
50,0.584915,2,0,2,1,9,1,1
50,0.482993,1,0,16,2,10,1,1
50,0.53121,2,0,33,3,11,1,1
50,0.520723,2,0,123,3,4,3,2
50,0.990697,1,0,36,3,12,1,1
50,0.553387,1,0,89,4,10,1,1
50,0.526226,2,0,103,1,2,2,2
50,0.444054,1,0,71,2,12,2,2
50,0.676604,1,0,7,1,11,1,1
50,0.397776,1,0,54,1,10,1,1
50,0.543761,2,0,43,4,11,1,1
50,0.789704,2,0,73,3,9,3,2
50,0.608089,1,0,101,1,2,1,1
50,0.538428,1,0,66,2,10,0,2
50,0.696312,1,0,112,2,1,3,2
50,0.439199,1,0,65,2,10,0,2
50,0.456122,1,0,63,2,9,1,1
50,0.479768,1,0,128,3,4,1,1
50,0.791937,2,0,52,1,10,0,2
50,0.514927,2,0,61,2,9,2,2
50,0.393523,1,0,104,1,2,1,1
50,0.484962,1,0,11,1,12,1,1
50,0.603595,2,0,105,1,2,2,2
50,0.438558,2,0,48,4,12,1,1
50,0.407257,1,0,32,3,11,1,1
50,0.530786,2,0,57,1,11,1,1
50,0.432298,1,1,40,4,10,1,1
50,0.424667,2,0,17,2,10,1,1
50,0.578397,2,0,131,3,4,3,2
50,0.429515,1,0,97,1,2,3,2
50,0.463073,1,0,137,4,3,3,2
50,0.470157,1,0,135,4,3,1,1
50,0.437946,1,0,47,4,12,1,1
50,0.567691,2,0,59,1,12,3,2
50,0.483507,2,0,23,2,12,1,1
50,0.570038,2,0,110,2,1,3,2
50,0.550631,2,0,67,2,11,3,2
50,0.491731,1,0,19,2,11,1,1
50,0.522766,2,0,39,4,9,1,1
50,0.575949,1,0,85,4,9,2,2
50,0.596277,1,0,45,4,11,1,1
50,0.478831,2,0,51,1,9,2,2
50,0.470669,2,0,9,1,11,1,1
50,0.662695,1,0,115,2,1,2,2
50,0.446484,1,0,125,3,4,3,2
50,0.406965,1,0,1,1,9,1,1
50,0.417667,1,0,88,4,10,3,2
50,0.49175,2,0,29,3,10,1,1
50,0.378691,2,1,18,2,10,1,1
50,0.373825,2,0,41,4,10,1,1
50,0.882372,2,0,132,3,4,1,1
50,0.577612,1,0,84,3,12,0,2
50,0.797765,1,0,99,1,2,2,2
50,0.479841,1,0,10,1,12,1,1
50,0.431806,1,0,26,3,9,1,1
50,0.53671,2,0,122,3,4,2,2
50,0.429992,1,0,141,4,3,3,2
50,0.535107,2,0,62,2,9,0,2
50,0.516289,2,0,134,4,3,2,2
50,0.482046,2,0,82,3,12,0,2
50,0.528889,2,0,116,2,1,3,2
50,0.430473,1,0,38,4,9,1,1
50,0.656192,2,0,60,1,12,1,1
50,0.495865,2,0,107,1,2,1,1
50,0.39073,2,1,81,3,11,1,1
50,0.833898,2,0,140,4,3,3,2
50,0.659053,2,0,8,1,11,1,1
50,0.547743,2,0,136,4,3,3,2
50,0.407113,1,0,69,2,11,1,1
50,0.642058,2,0,79,3,11,2,2
50,0.548234,1,0,144,4,3,2,2
50,0.648615,2,0,96,4,12,0,2
50,0.816202,1,0,109,2,1,2,2
50,0.554267,1,0,92,4,11,1,1
50,1.422627,1,0,106,1,2,3,2
50,0.424458,1,0,127,3,4,1,1
50,0.554579,1,1,124,3,4,1,1
50,1.239327,1,0,130,3,4,3,2
50,0.576731,2,0,86,4,9,2,2
50,0.516426,1,0,34,3,12,1,1
50,0.561383,2,0,13,2,9,1,1
50,0.470505,2,0,22,2,12,1,1
50,0.607198,2,0,129,3,4,2,2
50,0.617681,2,0,21,2,11,1,1
50,0.475251,2,0,5,1,10,1,1
50,0.803599,2,0,113,2,1,2,2
50,0.542089,2,0,30,3,10,1,1
50,0.53904,1,0,4,1,10,1,1
50,0.792427,1,0,121,3,4,2,2
50,0.771819,1,0,31,3,11,1,1
50,0.799747,1,0,78,3,10,3,2
52,0.840877,1,0,102,1,2,3,2
52,0.448984,1,0,101,1,2,1,1
52,0.488925,1,0,12,1,12,1,1
52,0.439998,1,0,18,2,10,3,2
52,0.456055,1,0,44,4,11,0,2
52,0.543781,2,0,136,4,3,1,1
52,0.500769,1,0,61,2,9,1,1
52,0.451441,2,0,36,3,12,2,2
52,0.483676,2,0,114,2,1,3,2
52,0.593538,1,0,142,4,3,3,2
52,0.629008,2,0,72,2,12,1,1
52,0.398091,1,0,116,2,1,2,2
52,0.535124,1,0,20,2,11,0,2
52,0.620301,1,1,128,3,4,3,2
52,0.533109,1,0,29,3,10,0,2
52,0.473996,2,1,135,4,3,1,1
52,0.671185,2,0,111,2,1,2,2
52,0.543028,2,0,98,1,2,2,2
52,0.492149,1,1,133,4,3,2,2
52,0.483174,1,0,78,3,10,1,1
52,0.418314,2,0,43,4,11,2,2
52,0.619453,2,0,10,1,12,2,2
52,0.493048,2,0,130,3,4,2,2
52,0.627162,1,0,106,1,2,3,2
52,0.619416,2,0,7,1,11,1,1
52,0.484198,1,0,138,4,3,3,2
52,0.475459,1,1,79,3,11,1,1
52,0.521964,2,0,115,2,1,1,1
52,0.536601,2,0,77,3,10,1,1
52,0.477298,1,0,25,3,9,1,1
52,0.595763,1,0,16,2,10,0,2
52,0.471318,1,0,88,4,10,1,1
52,0.516978,2,0,53,1,10,1,1
52,0.698551,2,0,23,2,12,3,2
52,0.504093,1,0,82,3,12,1,1
52,0.485563,2,0,76,3,10,1,1
52,0.700526,1,0,80,3,11,1,1
52,0.603056,2,0,86,4,9,1,1
52,0.565817,2,1,9,1,11,3,2
52,0.505272,1,0,17,2,10,1,1
52,0.551442,2,0,57,1,11,1,1
52,0.547013,1,0,30,3,10,1,1
52,0.495307,1,0,71,2,12,1,1
52,0.54081,1,0,121,3,4,2,2
52,0.51392,1,0,46,4,12,0,2
52,0.54289,1,0,94,4,12,1,1
52,0.692031,2,0,107,1,2,3,2
52,0.794222,2,0,41,4,10,1,1
52,0.468089,1,0,26,3,9,0,2
52,0.643481,2,0,49,1,9,1,1
52,0.531593,2,0,83,3,12,1,1
52,0.672884,2,0,42,4,10,2,2
52,0.52045,1,0,63,2,9,1,1
52,0.622155,2,0,103,1,2,1,1
52,0.511883,1,1,31,3,11,0,2
52,0.540621,2,0,34,3,12,2,2
52,0.513089,1,0,50,1,9,1,1
52,0.646644,2,0,120,2,1,2,2
52,0.554726,1,0,123,3,4,3,2
52,0.726644,2,0,140,4,3,2,2
52,0.789423,2,0,21,2,11,2,2
52,0.735708,2,0,126,3,4,1,1
52,0.485721,1,0,51,1,9,1,1
52,0.483246,1,0,54,1,10,1,1
52,0.506575,1,0,8,1,11,0,2
52,0.503917,1,0,108,1,2,2,2
52,0.462124,1,0,24,2,12,2,2
52,0.533532,2,0,62,2,9,1,1
52,0.714772,1,1,81,3,11,1,1
52,0.631827,2,0,59,1,12,1,1
52,0.528203,1,0,2,1,9,2,2
52,0.692685,2,0,143,4,3,1,1
52,0.434531,1,0,38,4,9,1,1
52,0.466867,1,0,56,1,11,1,1
52,0.54602,2,0,119,2,1,3,2
52,0.478725,2,0,58,1,12,1,1
52,0.437116,2,0,32,3,11,3,2
52,0.478085,2,0,87,4,9,1,1
52,0.468453,2,0,14,2,9,0,2
52,0.474436,2,1,6,1,10,1,1
52,0.593114,2,0,27,3,9,1,1
52,0.436444,2,0,99,1,2,3,2
52,0.485094,2,0,65,2,10,1,1
52,0.500651,1,0,35,3,12,3,2
52,0.61047,1,0,93,4,11,1,1
52,0.348721,1,1,100,1,2,1,1
52,0.4563,1,0,122,3,4,1,1
52,0.568014,2,0,13,2,9,1,1
52,0.499577,2,0,67,2,11,1,1
52,0.362028,2,0,33,3,11,1,1
52,0.444941,2,0,95,4,12,1,1
52,0.597246,1,0,129,3,4,2,2
52,0.68734,2,0,127,3,4,2,2
52,0.629413,1,0,66,2,10,1,1
52,0.502287,1,0,5,1,10,0,2
52,0.652309,1,0,118,2,1,3,2
52,0.460678,1,0,134,4,3,1,1
52,0.613057,2,0,11,1,12,0,2
52,0.4629,2,0,75,3,9,1,1
52,0.494141,2,1,113,2,1,1,1
52,0.684293,2,0,40,4,10,1,1
52,0.546554,1,0,117,2,1,3,2
52,0.454388,1,0,104,1,2,1,1
52,0.453736,2,0,110,2,1,1,1
52,0.613663,1,0,22,2,12,1,1
52,0.527599,2,0,64,2,10,1,1
52,0.5797,2,1,68,2,11,1,1
52,0.406632,2,0,97,1,2,2,2
52,0.905476,2,0,39,4,9,3,2
52,0.599911,2,0,70,2,12,1,1
52,0.522023,1,0,37,4,9,0,2
52,0.599321,2,0,1,1,9,3,2
52,0.62911,2,0,137,4,3,3,2
52,0.501468,1,0,47,4,12,3,2
52,0.428387,1,0,74,3,9,1,1
52,0.541338,2,0,96,4,12,1,1
52,0.5862,2,0,19,2,11,1,1
52,0.645198,2,0,124,3,4,3,2
52,0.493065,2,0,144,4,3,3,2
52,0.666519,2,0,45,4,11,0,2
52,0.35412,1,0,60,1,12,1,1
52,0.422189,1,0,92,4,11,1,1
52,0.478955,1,0,85,4,9,1,1
52,0.36666,1,0,131,3,4,1,1
52,0.410576,1,0,84,3,12,1,1
52,0.364501,1,0,55,1,11,1,1
52,0.576418,2,0,89,4,10,1,1
52,0.490392,2,1,105,1,2,2,2
52,0.498186,1,0,139,4,3,2,2
52,0.559588,1,0,132,3,4,3,2
52,0.530375,1,1,52,1,10,1,1
52,0.711822,2,0,15,2,9,0,2
52,0.461576,1,0,141,4,3,2,2
52,0.541366,2,0,3,1,9,0,2
52,0.473049,1,0,28,3,10,0,2
52,0.472681,1,0,73,3,9,1,1
52,0.424619,1,0,48,4,12,1,1
52,0.513807,2,0,90,4,10,1,1
52,0.59889,2,0,125,3,4,1,1
52,0.488329,1,0,69,2,11,1,1
52,0.503181,1,0,91,4,11,1,1
52,0.40642,1,1,4,1,10,1,1
52,0.464249,1,0,109,2,1,1,1
52,0.583547,1,0,112,2,1,2,2
52,0.553177,2,0,57,1,11,1,1
52,0.372951,1,0,61,2,9,1,1
52,0.489002,1,1,11,1,12,0,2
52,0.399141,1,0,71,2,12,1,1
52,0.418235,2,1,106,1,2,3,2
52,0.664105,2,0,10,1,12,2,2
52,0.479753,1,0,132,3,4,3,2
52,0.598366,2,0,128,3,4,3,2
52,0.496843,1,0,80,3,11,1,1
52,0.518186,1,0,109,2,1,1,1
52,0.483622,1,0,138,4,3,3,2
52,0.530699,2,0,4,1,10,1,1
52,0.703929,1,0,37,4,9,0,2
52,0.662459,1,0,44,4,11,0,2
52,0.901354,2,0,89,4,10,1,1
52,0.435606,1,0,93,4,11,1,1
52,0.459353,1,0,73,3,9,1,1
52,0.386911,1,0,17,2,10,1,1
52,0.582095,2,1,25,3,9,1,1
52,0.504306,1,1,137,4,3,3,2
52,0.870447,2,0,64,2,10,1,1
52,0.565326,2,0,59,1,12,1,1
52,0.639796,2,0,52,1,10,1,1
52,0.632769,2,0,14,2,9,0,2
52,0.4408,2,0,90,4,10,1,1
52,0.482126,1,0,60,1,12,1,1
52,0.401939,2,0,72,2,12,1,1
52,0.699528,2,0,111,2,1,2,2
52,0.528869,2,0,42,4,10,2,2
52,0.437245,2,0,62,2,9,1,1
52,0.517433,1,0,84,3,12,1,1
52,0.45166,1,0,6,1,10,1,1
52,0.411575,1,0,54,1,10,1,1
52,0.589167,2,0,31,3,11,0,2
52,0.568028,2,0,34,3,12,2,2
52,0.499372,1,0,51,1,9,1,1
52,0.464947,2,0,40,4,10,1,1
52,0.528063,2,0,126,3,4,1,1
52,0.517462,2,0,43,4,11,2,2
52,0.530447,2,0,32,3,11,3,2
52,0.606605,1,0,47,4,12,3,2
52,0.768925,2,0,49,1,9,1,1
52,0.484199,1,0,101,1,2,1,1
52,0.522529,1,0,116,2,1,2,2
52,0.544544,1,0,50,1,9,1,1
52,0.500837,1,0,63,2,9,1,1
52,0.682906,2,0,119,2,1,3,2
52,0.392068,2,0,83,3,12,1,1
52,0.491566,1,0,112,2,1,2,2
52,0.458796,1,1,65,2,10,1,1
52,0.610454,2,0,13,2,9,1,1
52,0.795853,1,0,68,2,11,1,1
52,0.710074,1,0,102,1,2,3,2
52,0.507776,2,0,41,4,10,1,1
52,0.553265,1,0,91,4,11,1,1
52,0.381825,2,0,96,4,12,1,1
52,0.471208,2,1,122,3,4,1,1
52,0.501888,2,0,103,1,2,1,1
52,0.7011,2,0,99,1,2,3,2
52,0.45075,1,0,85,4,9,1,1
52,0.499063,2,0,110,2,1,1,1
52,0.48148,1,1,130,3,4,2,2
52,0.631577,2,1,139,4,3,2,2
52,0.552643,2,0,144,4,3,3,2
52,0.541846,1,1,77,3,10,1,1
52,0.617772,1,0,94,4,12,1,1
52,0.498571,2,0,19,2,11,1,1
52,0.481224,2,1,113,2,1,1,1
52,0.743351,2,0,70,2,12,1,1
52,0.667661,2,0,53,1,10,1,1
52,0.484162,1,0,78,3,10,1,1
52,0.514373,1,0,129,3,4,2,2
52,0.721874,2,0,67,2,11,1,1
52,0.583046,1,0,18,2,10,3,2
52,0.642164,2,0,33,3,11,1,1
52,0.683071,2,0,3,1,9,0,2
52,0.569782,1,0,12,1,12,1,1
52,0.804826,2,1,29,3,10,0,2
52,0.663851,2,0,21,2,11,2,2
52,0.405826,1,0,48,4,12,1,1
52,0.568735,2,0,79,3,11,1,1
52,0.435598,1,0,104,1,2,1,1
52,0.731992,1,0,28,3,10,0,2
52,0.544316,2,0,58,1,12,1,1
52,0.462291,2,0,86,4,9,1,1
52,0.846835,2,0,95,4,12,1,1
52,0.502919,1,0,108,1,2,2,2
52,0.700943,2,0,81,3,11,1,1
52,0.49087,1,0,66,2,10,1,1
52,0.376958,2,0,76,3,10,1,1
52,0.509309,2,0,136,4,3,1,1
52,0.635429,1,0,8,1,11,0,2
52,0.66821,2,0,1,1,9,3,2
52,0.882623,2,0,107,1,2,3,2
52,0.537466,1,0,88,4,10,1,1
52,0.542267,2,0,125,3,4,1,1
52,0.491106,1,0,20,2,11,0,2
52,0.61021,2,0,45,4,11,0,2
52,0.547158,2,0,7,1,11,1,1
52,0.503891,1,0,118,2,1,3,2
52,0.606898,2,0,115,2,1,1,1
52,0.928744,2,0,39,4,9,3,2
52,0.613709,2,0,98,1,2,2,2
52,0.510951,1,0,38,4,9,1,1
52,0.763687,1,0,142,4,3,3,2
52,0.815488,2,0,114,2,1,3,2
52,0.504926,1,0,46,4,12,0,2
52,0.486772,1,0,82,3,12,1,1
52,0.470603,1,0,56,1,11,1,1
52,0.396928,1,0,105,1,2,2,2
52,0.567088,1,0,24,2,12,2,2
52,0.402774,2,0,100,1,2,1,1
52,0.437375,1,0,35,3,12,3,2
52,0.517844,1,0,5,1,10,0,2
52,0.516215,1,0,135,4,3,1,1
52,0.438273,1,0,55,1,11,1,1
52,0.414971,1,0,9,1,11,3,2
52,0.600708,1,0,2,1,9,2,2
52,0.626438,2,0,23,2,12,3,2
52,0.442399,1,0,16,2,10,0,2
52,0.76338,2,0,15,2,9,0,2
52,0.478603,1,0,131,3,4,1,1
52,0.32619,1,0,22,2,12,1,1
52,0.652041,2,0,27,3,9,1,1
52,0.56473,2,0,36,3,12,2,2
52,0.77612,1,0,123,3,4,3,2
52,0.483644,2,1,26,3,9,0,2
52,0.617964,2,0,97,1,2,2,2
52,0.539359,2,0,75,3,9,1,1
52,0.471755,1,0,92,4,11,1,1
52,0.638744,2,0,87,4,9,1,1
52,0.575497,2,0,133,4,3,2,2
52,0.546992,2,1,117,2,1,3,2
52,0.583864,2,0,127,3,4,2,2
52,0.602778,1,0,74,3,9,1,1
52,0.485051,1,0,121,3,4,2,2
52,0.73116,1,0,30,3,10,1,1
52,0.472671,1,0,69,2,11,1,1
52,0.623669,2,0,120,2,1,2,2
52,0.625282,2,0,143,4,3,1,1
52,0.563022,2,0,140,4,3,2,2
52,0.518654,2,0,124,3,4,3,2
52,0.496776,1,0,141,4,3,2,2
52,1.047572,1,0,134,4,3,1,1
52,0.424421,1,0,113,2,1,1,1
52,0.441364,1,0,38,4,9,1,1
52,0.705469,2,0,21,2,11,2,2
52,0.496337,2,0,58,1,12,1,1
52,0.495249,2,0,72,2,12,1,1
52,0.605384,1,0,106,1,2,3,2
52,0.590056,2,0,3,1,9,0,2
52,0.681447,2,0,126,3,4,1,1
52,0.455929,1,0,134,4,3,1,1
52,0.631865,2,0,119,2,1,3,2
52,0.600833,2,0,120,2,1,2,2
52,0.579751,1,0,54,1,10,1,1
52,0.502597,2,0,65,2,10,1,1
52,0.587805,1,0,84,3,12,1,1
52,0.422781,2,0,36,3,12,2,2
52,0.288523,1,0,88,4,10,1,1
52,0.494995,2,0,40,4,10,1,1
52,0.621299,1,1,34,3,12,2,2
52,0.432141,1,0,94,4,12,1,1
52,0.360419,1,0,92,4,11,1,1
52,0.509378,2,0,83,3,12,1,1
52,0.690917,2,0,53,1,10,1,1
52,0.554139,1,1,81,3,11,1,1
52,0.428946,1,0,48,4,12,1,1
52,0.478452,1,0,142,4,3,3,2
52,0.59394,2,0,98,1,2,2,2
52,0.484377,2,0,124,3,4,3,2
52,0.514684,1,0,47,4,12,3,2
52,0.592031,1,0,117,2,1,3,2
52,0.651341,2,0,79,3,11,1,1
52,0.666059,2,0,89,4,10,1,1
52,0.562746,1,0,102,1,2,3,2
52,0.589304,2,0,107,1,2,3,2
52,0.400691,1,0,63,2,9,1,1
52,0.522409,1,0,61,2,9,1,1
52,0.56001,2,0,27,3,9,1,1
52,0.467106,1,0,123,3,4,3,2
52,0.570372,1,0,2,1,9,2,2
52,0.758173,2,0,128,3,4,3,2
52,0.609401,1,0,29,3,10,0,2
52,0.387507,1,0,104,1,2,1,1
52,0.478125,1,0,80,3,11,1,1
52,0.437095,1,0,116,2,1,2,2
52,0.373665,1,1,90,4,10,1,1
52,0.496887,1,0,37,4,9,0,2
52,0.487371,2,0,76,3,10,1,1
52,0.476898,1,0,141,4,3,2,2
52,0.372286,2,1,121,3,4,2,2
52,0.672227,2,0,49,1,9,1,1
52,0.471407,1,1,39,4,9,3,2
52,0.814858,2,0,31,3,11,0,2
52,0.456062,2,0,75,3,9,1,1
52,0.648863,2,0,15,2,9,0,2
52,0.792489,2,0,140,4,3,2,2
52,1.051879,1,0,46,4,12,0,2
52,0.757049,2,0,143,4,3,1,1
52,0.600474,2,0,4,1,10,1,1
52,0.483456,2,0,100,1,2,1,1
52,0.642355,2,0,52,1,10,1,1
52,0.571167,2,1,69,2,11,1,1
52,0.429775,2,0,144,4,3,3,2
52,0.550827,2,0,70,2,12,1,1
52,0.579054,1,0,9,1,11,3,2
52,0.765081,2,0,133,4,3,2,2
52,0.52022,1,0,56,1,11,1,1
52,0.605651,2,0,42,4,10,2,2
52,0.504312,1,0,122,3,4,1,1
52,0.710206,2,0,136,4,3,1,1
52,0.634574,2,0,127,3,4,2,2
52,0.595949,2,0,111,2,1,2,2
52,0.518508,1,0,91,4,11,1,1
52,0.515279,1,0,74,3,9,1,1
52,0.500851,1,1,97,1,2,2,2
52,0.84089,2,0,67,2,11,1,1
52,0.657669,1,0,35,3,12,3,2
52,0.769561,2,0,137,4,3,3,2
52,0.573002,1,0,25,3,9,1,1
52,0.712971,1,0,82,3,12,1,1
52,0.534023,1,0,20,2,11,0,2
52,0.659234,1,0,138,4,3,3,2
52,0.54681,2,0,64,2,10,1,1
52,0.462511,1,0,60,1,12,1,1
52,0.469952,1,0,51,1,9,1,1
52,0.50905,2,0,41,4,10,1,1
52,0.586615,2,0,86,4,9,1,1
52,0.501524,1,1,43,4,11,2,2
52,0.388327,1,0,78,3,10,1,1
52,0.63828,1,0,5,1,10,0,2
52,0.463403,2,0,115,2,1,1,1
52,0.50292,2,0,110,2,1,1,1
52,0.49387,1,0,139,4,3,2,2
52,0.387683,2,0,57,1,11,1,1
52,0.518324,1,0,6,1,10,1,1
52,0.484373,1,0,68,2,11,1,1
52,0.555633,2,0,59,1,12,1,1
52,0.558933,2,0,1,1,9,3,2
52,0.459954,1,0,30,3,10,1,1
52,0.556887,1,0,22,2,12,1,1
52,0.559905,2,0,130,3,4,2,2
52,0.821134,1,0,135,4,3,1,1
52,0.949664,1,0,28,3,10,0,2
52,0.426085,1,0,55,1,11,1,1
52,0.347151,1,0,50,1,9,1,1
52,0.543342,2,0,96,4,12,1,1
52,0.755619,2,0,11,1,12,0,2
52,0.742197,1,0,24,2,12,2,2
52,0.763025,2,0,23,2,12,3,2
52,0.374369,1,0,12,1,12,1,1
52,0.545953,2,0,95,4,12,1,1
52,0.459095,1,0,129,3,4,2,2
52,0.467401,2,0,62,2,9,1,1
52,0.54695,2,0,33,3,11,1,1
52,0.67885,2,0,10,1,12,2,2
52,0.421381,1,0,131,3,4,1,1
52,0.550681,1,0,93,4,11,1,1
52,0.465988,1,0,44,4,11,0,2
52,0.73066,2,0,114,2,1,3,2
52,0.470929,1,0,105,1,2,2,2
52,0.421936,1,0,73,3,9,1,1
52,0.479589,1,0,132,3,4,3,2
52,0.573447,2,0,125,3,4,1,1
52,0.417643,2,0,103,1,2,1,1
52,0.442649,2,0,7,1,11,1,1
52,0.595349,1,0,109,2,1,1,1
52,0.357761,1,0,66,2,10,1,1
52,0.466286,2,1,108,1,2,2,2
52,0.48921,1,0,112,2,1,2,2
52,0.479863,1,0,101,1,2,1,1
52,0.526442,2,0,99,1,2,3,2
52,0.524414,2,0,32,3,11,3,2
52,0.555492,1,0,8,1,11,0,2
52,0.559553,2,0,87,4,9,1,1
52,0.420657,2,0,13,2,9,1,1
52,0.494827,1,0,18,2,10,3,2
52,0.428989,1,0,71,2,12,1,1
52,0.637416,1,0,17,2,10,1,1
52,0.47042,1,1,19,2,11,1,1
52,0.661941,2,0,77,3,10,1,1
52,0.644873,2,0,45,4,11,0,2
52,0.572718,1,0,16,2,10,0,2
52,0.616045,1,0,26,3,9,0,2
52,0.7214,1,0,118,2,1,3,2
52,0.50301,1,1,14,2,9,0,2
52,0.549222,1,0,85,4,9,1,1
52,0.43166,1,0,93,4,11,1,1
52,0.656249,2,0,34,3,12,2,2
52,0.655012,2,1,82,3,12,1,1
52,0.527708,1,0,47,4,12,3,2
52,0.667235,2,0,31,3,11,0,2
52,0.459907,1,0,131,3,4,1,1
52,0.666813,2,0,13,2,9,1,1
52,0.522758,2,0,23,2,12,3,2
52,0.616226,2,0,32,3,11,3,2
52,0.480706,1,0,9,1,11,3,2
52,0.632616,2,0,99,1,2,3,2
52,0.624156,1,0,104,1,2,1,1
52,0.481669,2,0,76,3,10,1,1
52,0.581557,1,0,69,2,11,1,1
52,0.519834,1,0,109,2,1,1,1
52,0.445472,1,0,92,4,11,1,1
52,0.500678,2,0,124,3,4,3,2
52,0.530921,1,1,97,1,2,2,2
52,0.622682,2,0,83,3,12,1,1
52,0.552286,1,0,94,4,12,1,1
52,0.984613,2,0,107,1,2,3,2
52,0.57971,2,0,137,4,3,3,2
52,0.670423,1,0,74,3,9,1,1
52,0.653709,2,0,21,2,11,2,2
52,0.518285,1,0,2,1,9,2,2
52,0.610975,2,0,119,2,1,3,2
52,0.54862,1,0,5,1,10,0,2
52,0.695522,2,0,52,1,10,1,1
52,0.830918,1,0,56,1,11,1,1
52,0.704018,2,1,55,1,11,1,1
52,0.301281,1,1,70,2,12,1,1
52,0.491939,1,0,25,3,9,1,1
52,0.522118,2,0,62,2,9,1,1
52,0.631693,2,0,86,4,9,1,1
52,0.832188,2,0,11,1,12,0,2
52,0.486181,2,1,112,2,1,2,2
52,0.565901,2,0,45,4,11,0,2
52,0.568984,1,0,6,1,10,1,1
52,0.532267,1,0,71,2,12,1,1
52,0.496033,2,0,72,2,12,1,1
52,0.470482,1,0,48,4,12,1,1
52,0.621731,2,0,19,2,11,1,1
52,0.463136,2,1,88,4,10,1,1
52,0.605901,1,1,65,2,10,1,1
52,0.560266,1,0,20,2,11,0,2
52,0.428552,1,0,66,2,10,1,1
52,0.653732,2,0,15,2,9,0,2
52,0.41382,1,0,113,2,1,1,1
52,0.41541,1,0,63,2,9,1,1
52,0.537044,2,0,4,1,10,1,1
52,0.549364,2,0,43,4,11,2,2
52,0.465311,2,0,87,4,9,1,1
52,0.496891,2,0,140,4,3,2,2
52,0.510482,1,0,105,1,2,2,2
52,0.436695,2,0,115,2,1,1,1
52,0.541984,1,0,37,4,9,0,2
52,0.762082,2,0,111,2,1,2,2
52,0.997334,1,0,142,4,3,3,2
52,0.463838,1,0,35,3,12,3,2
52,0.597864,1,0,116,2,1,2,2
52,0.360584,1,0,135,4,3,1,1
52,0.835943,2,0,36,3,12,2,2
52,0.516324,1,0,29,3,10,0,2
52,0.561632,1,0,108,1,2,2,2
52,0.493245,1,0,102,1,2,3,2
52,0.482843,1,0,12,1,12,1,1
52,0.441343,1,0,50,1,9,1,1
52,0.633719,2,0,40,4,10,1,1
52,0.554917,2,0,120,2,1,2,2
52,0.558245,1,0,28,3,10,0,2
52,0.650628,2,0,81,3,11,1,1
52,0.602738,2,0,42,4,10,2,2
52,0.472008,2,0,39,4,9,3,2
52,0.423402,1,0,85,4,9,1,1
52,0.401151,1,0,18,2,10,3,2
52,0.587438,2,0,133,4,3,2,2
52,0.500983,2,0,90,4,10,1,1
52,0.515601,1,0,106,1,2,3,2
52,0.473124,2,0,100,1,2,1,1
52,0.50336,2,0,125,3,4,1,1
52,0.533073,1,0,73,3,9,1,1
52,0.70574,1,0,123,3,4,3,2
52,0.431475,2,0,57,1,11,1,1
52,0.97597,2,0,89,4,10,1,1
52,0.473592,1,0,17,2,10,1,1
52,0.673192,2,0,98,1,2,2,2
52,0.616303,2,0,53,1,10,1,1
52,0.681795,2,0,10,1,12,2,2
52,0.480771,1,0,78,3,10,1,1
52,0.39147,2,0,143,4,3,1,1
52,0.562819,2,0,64,2,10,1,1
52,0.501503,1,0,80,3,11,1,1
52,0.500088,2,0,7,1,11,1,1
52,0.633789,1,0,118,2,1,3,2
52,0.530454,1,0,68,2,11,1,1
52,0.517931,2,0,130,3,4,2,2
52,0.604081,2,0,75,3,9,1,1
52,0.674227,2,0,126,3,4,1,1
52,0.570001,1,0,61,2,9,1,1
52,0.6531,1,0,138,4,3,3,2
52,0.653396,1,0,121,3,4,2,2
52,0.717476,1,0,117,2,1,3,2
52,0.498965,1,0,46,4,12,0,2
52,0.392513,1,0,60,1,12,1,1
52,0.455498,2,0,79,3,11,1,1
52,0.583246,2,0,110,2,1,1,1
52,0.633701,2,0,41,4,10,1,1
52,0.53094,2,0,3,1,9,0,2
52,0.695514,1,0,132,3,4,3,2
52,0.717876,2,0,67,2,11,1,1
52,0.619144,2,0,136,4,3,1,1
52,0.636892,1,0,129,3,4,2,2
52,0.621545,1,0,54,1,10,1,1
52,0.582587,2,0,77,3,10,1,1
52,0.528713,1,0,38,4,9,1,1
52,0.854041,2,0,14,2,9,0,2
52,0.453289,2,0,103,1,2,1,1
52,0.597939,1,0,91,4,11,1,1
52,0.535739,2,0,96,4,12,1,1
52,0.668605,1,0,16,2,10,0,2
52,0.628674,1,0,141,4,3,2,2
52,0.484964,1,0,84,3,12,1,1
52,0.515876,2,0,27,3,9,1,1
52,0.528991,1,0,22,2,12,1,1
52,0.413428,2,1,139,4,3,2,2
52,0.6146,1,0,51,1,9,1,1
52,0.543692,1,0,122,3,4,1,1
52,0.580314,1,0,24,2,12,2,2
52,0.638882,1,0,26,3,9,0,2
52,0.703069,2,0,144,4,3,3,2
52,0.605558,2,0,1,1,9,3,2
52,0.871845,2,0,128,3,4,3,2
52,0.55887,1,0,30,3,10,1,1
52,0.555282,1,0,134,4,3,1,1
52,0.792107,2,0,114,2,1,3,2
52,0.642133,1,0,101,1,2,1,1
52,0.618748,2,0,95,4,12,1,1
52,0.708503,1,0,44,4,11,0,2
52,0.562222,2,0,49,1,9,1,1
52,0.717099,1,0,8,1,11,0,2
52,0.602509,2,0,33,3,11,1,1
52,0.509066,1,1,58,1,12,1,1
52,0.690594,2,0,127,3,4,2,2
52,0.489321,2,0,59,1,12,1,1
53,1.328982,2,0,100,1,2,3,2
53,0.966542,2,0,10,1,12,1,1
53,0.434176,2,0,7,1,11,0,2
53,0.963932,2,0,29,3,10,0,2
53,0.471369,1,0,39,4,9,2,2
53,0.831462,2,0,69,2,11,1,1
53,1.128476,2,0,78,3,10,1,1
53,1.134424,2,0,121,3,4,2,2
53,0.882929,1,0,36,3,12,1,1
53,0.626605,1,0,67,2,11,1,1
53,0.724564,1,0,12,1,12,2,2
53,0.490467,2,0,27,3,9,1,1
53,0.545542,1,0,130,3,4,2,2
53,0.678326,2,0,41,4,10,0,2
53,0.686143,1,0,132,3,4,1,1
53,0.661213,1,0,1,1,9,0,2
53,0.741408,1,0,79,3,11,1,1
53,0.603165,2,0,131,3,4,1,1
53,0.621688,1,0,141,4,3,2,2
53,0.679065,1,0,137,4,3,3,2
53,0.534872,1,0,83,3,12,1,1
53,0.867373,2,0,89,4,10,1,1
53,0.571165,2,0,138,4,3,1,1
53,0.76797,1,0,97,1,2,2,2
53,0.499382,2,0,135,4,3,3,2
53,0.610408,1,0,108,1,2,3,2
53,0.468999,2,0,117,2,1,3,2
53,0.676814,1,0,48,4,12,3,2
53,0.548619,1,0,33,3,11,1,1
53,0.729944,1,0,61,2,9,1,1
53,0.81459,2,0,110,2,1,3,2
53,0.769043,2,0,64,2,10,1,1
53,0.676675,2,0,32,3,11,0,2
53,0.604996,2,0,142,4,3,2,2
53,0.663684,2,0,47,4,12,0,2
53,0.574652,2,0,22,2,12,2,2
53,0.491148,2,0,23,2,12,1,1
53,0.570281,2,0,96,4,12,1,1
53,0.622266,1,0,90,4,10,1,1
53,0.68035,1,0,125,3,4,3,2
53,0.519144,2,0,129,3,4,1,1
53,0.765539,1,0,99,1,2,2,2
53,0.545925,1,0,34,3,12,2,2
53,0.486624,1,0,139,4,3,1,1
53,0.685759,1,0,81,3,11,1,1
53,0.628563,1,0,68,2,11,1,1
53,0.461298,1,0,112,2,1,2,2
53,0.5976,2,0,98,1,2,2,2
53,0.521007,1,0,73,3,9,1,1
53,0.606952,2,0,104,1,2,2,2
53,0.481577,1,0,53,1,10,1,1
53,0.608357,1,0,116,2,1,3,2
53,0.746888,2,0,114,2,1,2,2
53,0.599943,2,0,72,2,12,1,1
53,0.473851,1,0,4,1,10,1,1
53,0.506146,2,0,70,2,12,1,1
53,0.56092,2,0,118,2,1,2,2
53,0.485436,1,0,56,1,11,1,1
53,0.588747,1,0,92,4,11,1,1
53,0.575473,2,0,88,4,10,1,1
53,0.580055,2,0,140,4,3,1,1
53,0.670635,2,0,101,1,2,3,2
53,0.470208,1,0,71,2,12,1,1
53,0.638261,2,0,19,2,11,0,2
53,0.615286,1,0,124,3,4,1,1
53,0.513783,1,0,84,3,12,1,1
53,0.599691,1,0,43,4,11,0,2
53,0.738604,1,0,122,3,4,3,2
53,0.542404,2,0,9,1,11,3,2
53,0.836145,2,0,103,1,2,1,1
53,0.454082,1,0,106,1,2,1,1
53,0.646499,1,0,24,2,12,1,1
53,0.690367,2,0,5,1,10,2,2
53,0.521444,2,0,123,3,4,3,2
53,0.495536,2,0,44,4,11,1,1
53,0.477803,1,0,93,4,11,1,1
53,0.470343,2,0,30,3,10,2,2
53,0.398242,2,1,115,2,1,1,1
53,0.7288,2,0,55,1,11,1,1
53,0.453786,2,0,75,3,9,1,1
53,0.405877,2,0,82,3,12,1,1
53,0.513389,2,0,3,1,9,1,1
53,0.49526,2,0,105,1,2,1,1
53,0.469592,2,0,46,4,12,0,2
53,0.533978,1,0,86,4,9,1,1
53,0.610845,1,0,21,2,11,2,2
53,0.501446,1,0,58,1,12,1,1
53,0.660277,2,0,50,1,9,1,1
53,0.428802,2,0,85,4,9,1,1
53,0.622055,1,0,25,3,9,3,2
53,0.647259,1,0,102,1,2,3,2
53,0.632244,1,0,15,2,9,3,2
53,0.545379,1,0,66,2,10,1,1
53,0.518261,2,0,113,2,1,1,1
53,0.771052,2,0,13,2,9,0,2
53,0.478833,2,0,63,2,9,1,1
53,0.630461,1,0,20,2,11,0,2
53,0.479475,2,0,16,2,10,1,1
53,0.903006,1,0,17,2,10,0,2
53,0.453664,1,0,95,4,12,1,1
53,0.598182,2,0,76,3,10,1,1
53,0.713064,1,0,77,3,10,1,1
53,0.479381,2,0,59,1,12,1,1
53,0.606781,1,0,14,2,9,1,1
53,0.713315,2,0,80,3,11,1,1
53,0.719051,1,1,133,4,3,2,2
53,0.724171,2,0,18,2,10,3,2
53,0.514073,2,0,65,2,10,1,1
53,0.70396,1,1,128,3,4,2,2
53,0.5584,1,0,109,2,1,1,1
53,0.858963,2,0,26,3,9,1,1
53,0.531316,2,0,60,1,12,1,1
53,0.680375,1,0,38,4,9,1,1
53,0.528126,2,0,91,4,11,1,1
53,0.750144,1,0,107,1,2,1,1
53,0.650118,1,0,126,3,4,2,2
53,0.587271,1,0,134,4,3,1,1
53,0.725411,1,0,37,4,9,1,1
53,0.843679,2,0,40,4,10,2,2
53,0.573481,1,0,57,1,11,1,1
53,0.969611,1,0,35,3,12,3,2
53,0.876767,2,0,136,4,3,3,2
53,0.579992,1,0,52,1,10,1,1
53,0.631634,1,0,11,1,12,1,1
53,0.825376,1,0,2,1,9,0,2
53,0.490889,1,0,42,4,10,3,2
53,0.722383,1,0,143,4,3,3,2
53,0.472405,1,0,144,4,3,2,2
53,0.560677,2,0,31,3,11,0,2
53,0.676681,1,0,28,3,10,0,2
53,0.69281,2,0,120,2,1,1,1
53,0.635845,1,0,8,1,11,3,2
53,0.549666,1,0,111,2,1,2,2
53,0.457896,2,0,74,3,9,1,1
53,0.635169,2,0,127,3,4,3,2
53,0.635687,2,0,54,1,10,1,1
53,0.469096,2,0,51,1,9,1,1
53,0.525548,1,0,62,2,9,1,1
53,0.730927,2,0,94,4,12,1,1
53,0.488184,1,0,87,4,9,1,1
53,0.630363,2,0,6,1,10,0,2
53,0.520241,1,1,45,4,11,1,1
53,0.58967,1,0,119,2,1,3,2
53,0.57799,1,0,49,1,9,1,1
53,0.713966,1,0,12,1,12,2,2
53,0.616638,2,0,96,4,12,1,1
53,0.530518,2,0,44,4,11,1,1
53,0.527696,1,0,130,3,4,2,2
53,0.612343,1,0,25,3,9,3,2
53,0.46299,2,0,51,1,9,1,1
53,0.711003,1,0,115,2,1,1,1
53,0.637791,1,0,28,3,10,0,2
53,0.559276,1,0,15,2,9,3,2
53,0.626863,1,0,95,4,12,1,1
53,0.788157,2,0,123,3,4,3,2
53,0.672165,2,0,3,1,9,1,1
53,0.815957,1,0,35,3,12,3,2
53,0.570181,1,0,111,2,1,2,2
53,0.629689,2,0,55,1,11,1,1
53,0.639438,2,0,78,3,10,1,1
53,0.480817,2,0,45,4,11,1,1
53,0.911705,2,0,47,4,12,0,2
53,0.542285,1,0,43,4,11,0,2
53,0.939456,1,0,4,1,10,1,1
53,0.608405,2,0,72,2,12,1,1
53,0.714715,2,0,94,4,12,1,1
53,0.527869,1,0,77,3,10,1,1
53,0.565587,2,0,41,4,10,0,2
53,0.59304,1,0,66,2,10,1,1
53,0.740592,2,0,60,1,12,1,1
53,0.961677,1,0,79,3,11,1,1
53,0.532624,2,0,9,1,11,3,2
53,1.16225,1,0,68,2,11,1,1
53,0.558982,2,0,7,1,11,0,2
53,1.018439,2,0,16,2,10,1,1
53,0.589604,2,0,91,4,11,1,1
53,0.512847,1,0,116,2,1,3,2
53,0.629871,2,0,98,1,2,2,2
53,0.639578,1,0,124,3,4,1,1
53,0.472778,2,0,32,3,11,0,2
53,0.56852,1,0,126,3,4,2,2
53,0.508586,2,0,76,3,10,1,1
53,0.755317,1,0,42,4,10,3,2
53,0.550646,2,0,18,2,10,3,2
53,0.500133,1,0,90,4,10,1,1
53,0.80929,1,0,141,4,3,2,2
53,0.565185,1,0,56,1,11,1,1
53,0.625105,1,0,132,3,4,1,1
53,0.499099,2,0,138,4,3,1,1
53,0.505313,2,0,105,1,2,1,1
53,0.527729,2,0,46,4,12,0,2
53,0.702497,1,0,17,2,10,0,2
53,0.588704,1,0,143,4,3,3,2
53,0.575118,1,0,37,4,9,1,1
53,0.578947,2,0,19,2,11,0,2
53,0.518206,2,0,69,2,11,1,1
53,0.676329,1,0,108,1,2,3,2
53,0.603387,1,0,83,3,12,1,1
53,0.60707,1,0,52,1,10,1,1
53,0.680701,2,0,30,3,10,2,2
53,0.615107,2,0,85,4,9,1,1
53,0.385768,2,0,129,3,4,1,1
53,0.620637,2,0,131,3,4,1,1
53,0.582306,1,0,36,3,12,1,1
53,0.482335,2,0,40,4,10,2,2
53,0.681077,1,1,31,3,11,0,2
53,0.576456,1,0,73,3,9,1,1
53,0.523844,1,0,84,3,12,1,1
53,0.530047,1,0,14,2,9,1,1
53,0.415298,2,0,89,4,10,1,1
53,0.441418,2,0,100,1,2,3,2
53,0.523388,2,0,104,1,2,2,2
53,0.520578,1,1,128,3,4,2,2
53,0.903006,1,0,134,4,3,1,1
53,0.525793,2,0,121,3,4,2,2
53,0.587824,1,0,20,2,11,0,2
53,0.644916,2,0,103,1,2,1,1
53,0.53318,2,0,113,2,1,1,1
53,0.714867,1,0,102,1,2,3,2
53,0.496093,2,0,88,4,10,1,1
53,0.718786,1,0,87,4,9,1,1
53,0.540898,1,0,107,1,2,1,1
53,0.658719,2,0,133,4,3,2,2
53,0.523701,2,1,48,4,12,3,2
53,0.624701,1,0,33,3,11,1,1
53,0.60323,1,0,71,2,12,1,1
53,0.533847,2,0,63,2,9,1,1
53,0.458509,2,0,10,1,12,1,1
53,0.571407,1,0,24,2,12,1,1
53,0.831764,1,0,99,1,2,2,2
53,0.47202,2,0,135,4,3,3,2
53,0.544354,1,0,81,3,11,1,1
53,0.692395,1,0,106,1,2,1,1
53,0.556071,2,0,64,2,10,1,1
53,0.536754,1,0,58,1,12,1,1
53,0.509009,2,0,54,1,10,1,1
53,0.564025,1,1,120,2,1,1,1
53,0.608247,2,0,59,1,12,1,1
53,0.555311,1,0,109,2,1,1,1
53,0.615569,2,0,23,2,12,1,1
53,0.657761,1,0,92,4,11,1,1
53,0.57031,2,0,142,4,3,2,2
53,0.662439,1,0,119,2,1,3,2
53,0.630468,2,0,114,2,1,2,2
53,0.663854,1,0,137,4,3,3,2
53,0.519294,2,0,75,3,9,1,1
53,0.757402,2,0,50,1,9,1,1
53,0.522164,2,0,110,2,1,3,2
53,0.607239,2,0,29,3,10,0,2
53,0.522234,1,0,8,1,11,3,2
53,0.600259,2,0,13,2,9,0,2
53,0.482365,1,0,62,2,9,1,1
53,0.569924,2,0,127,3,4,3,2
53,0.589867,1,0,139,4,3,1,1
53,0.552931,2,0,82,3,12,1,1
53,0.533036,1,0,57,1,11,1,1
53,0.54665,1,0,39,4,9,2,2
53,0.606408,1,0,112,2,1,2,2
53,0.752904,2,0,27,3,9,1,1
53,0.50933,1,0,2,1,9,0,2
53,0.612206,2,0,117,2,1,3,2
53,0.534051,1,0,1,1,9,0,2
53,0.771776,1,0,53,1,10,1,1
53,0.566646,2,0,101,1,2,3,2
53,0.539022,2,0,5,1,10,2,2
53,0.615039,1,0,49,1,9,1,1
53,0.496732,1,0,34,3,12,2,2
53,0.71899,1,0,61,2,9,1,1
53,0.461729,1,0,86,4,9,1,1
53,0.573695,1,0,122,3,4,3,2
53,0.648492,2,0,26,3,9,1,1
53,0.464977,2,0,80,3,11,1,1
53,0.584956,1,0,38,4,9,1,1
53,0.564413,2,0,140,4,3,1,1
53,0.888496,2,0,136,4,3,3,2
53,0.50366,2,0,6,1,10,0,2
53,0.613511,1,0,21,2,11,2,2
53,0.495957,1,0,97,1,2,2,2
53,0.438754,2,0,74,3,9,1,1
53,0.959957,1,0,93,4,11,1,1
53,0.548142,1,0,67,2,11,1,1
53,0.496742,2,1,125,3,4,3,2
53,0.639145,1,0,11,1,12,1,1
53,0.455616,2,0,70,2,12,1,1
53,0.704554,2,0,65,2,10,1,1
53,0.463596,2,0,118,2,1,2,2
53,0.502823,1,0,144,4,3,2,2
53,0.638146,2,0,22,2,12,2,2
53,0.921491,2,0,128,3,4,2,2
53,0.687672,1,0,102,1,2,3,2
53,0.703018,1,0,33,3,11,1,1
53,0.533008,1,0,141,4,3,2,2
53,0.522268,2,0,41,4,10,0,2
53,0.625093,2,0,105,1,2,1,1
53,0.7542,1,0,4,1,10,1,1
53,0.558798,2,0,91,4,11,1,1
53,0.819349,1,0,53,1,10,1,1
53,0.773447,1,0,66,2,10,1,1
53,0.49743,1,0,20,2,11,0,2
53,0.576221,2,0,101,1,2,3,2
53,0.73233,1,0,126,3,4,2,2
53,0.520055,1,0,97,1,2,2,2
53,0.598188,1,0,116,2,1,3,2
53,0.593326,2,0,113,2,1,1,1
53,0.580888,1,0,134,4,3,1,1
53,0.576288,2,0,47,4,12,0,2
53,0.483788,2,0,64,2,10,1,1
53,0.594659,1,0,79,3,11,1,1
53,0.56509,2,0,133,4,3,2,2
53,0.945951,2,0,123,3,4,3,2
53,0.734476,1,0,35,3,12,3,2
53,0.595173,1,0,132,3,4,1,1
53,0.510298,2,0,46,4,12,0,2
53,0.56349,1,0,24,2,12,1,1
53,0.616519,2,0,120,2,1,1,1
53,0.497567,2,0,98,1,2,2,2
53,0.617134,2,0,100,1,2,3,2
53,0.449579,2,0,3,1,9,1,1
53,0.666444,1,0,12,1,12,2,2
53,0.778218,1,0,8,1,11,3,2
53,0.822043,2,1,99,1,2,2,2
53,0.871991,1,0,124,3,4,1,1
53,0.591114,2,0,114,2,1,2,2
53,0.635305,1,0,14,2,9,1,1
53,0.516064,2,0,69,2,11,1,1
53,0.497455,2,0,23,2,12,1,1
53,0.535952,2,0,45,4,11,1,1
53,1.326182,2,0,29,3,10,0,2
53,0.506857,2,0,32,3,11,0,2
53,0.888725,2,0,136,4,3,3,2
53,0.616818,2,0,117,2,1,3,2
53,0.57818,1,0,38,4,9,1,1
53,0.620822,1,0,37,4,9,1,1
53,0.486617,2,0,76,3,10,1,1
53,0.606175,2,0,129,3,4,1,1
53,0.631801,1,0,28,3,10,0,2
53,0.553991,1,0,1,1,9,0,2
53,0.469562,2,0,96,4,12,1,1
53,0.542044,1,0,68,2,11,1,1
53,0.739917,1,0,17,2,10,0,2
53,0.584941,2,0,55,1,11,1,1
53,0.524262,2,0,135,4,3,3,2
53,0.802397,2,1,52,1,10,1,1
53,1.068078,2,0,82,3,12,1,1
53,0.669023,1,0,56,1,11,1,1
53,0.444566,1,0,112,2,1,2,2
53,0.556421,2,0,9,1,11,3,2
53,0.889674,2,0,30,3,10,2,2
53,0.553452,1,0,25,3,9,3,2
53,0.653705,1,0,137,4,3,3,2
53,0.486312,2,0,80,3,11,1,1
53,0.58953,1,0,83,3,12,1,1
53,0.45672,2,0,18,2,10,3,2
53,0.553225,2,0,74,3,9,1,1
53,0.828932,1,0,106,1,2,1,1
53,0.543296,2,0,70,2,12,1,1
53,0.604255,1,1,110,2,1,3,2
53,0.543206,2,0,72,2,12,1,1
53,0.595971,2,0,140,4,3,1,1
53,0.503348,1,0,43,4,11,0,2
53,1.093811,2,0,22,2,12,2,2
53,0.660832,1,0,48,4,12,3,2
53,0.468822,2,0,60,1,12,1,1
53,0.884242,2,0,10,1,12,1,1
53,0.707989,2,0,59,1,12,1,1
53,0.626122,2,0,13,2,9,0,2
53,0.619956,2,0,50,1,9,1,1
53,0.629492,1,0,2,1,9,0,2
53,0.575812,1,0,21,2,11,2,2
53,0.547142,2,0,78,3,10,1,1
53,0.911737,1,0,111,2,1,2,2
53,0.630739,2,0,104,1,2,2,2
53,0.440042,2,0,54,1,10,1,1
53,0.553203,1,0,144,4,3,2,2
53,0.486204,2,0,121,3,4,2,2
53,0.428515,2,0,51,1,9,1,1
53,0.613785,1,0,84,3,12,1,1
53,0.743552,2,0,5,1,10,2,2
53,0.589499,2,0,65,2,10,1,1
53,0.536358,2,0,31,3,11,0,2
53,0.436981,2,0,138,4,3,1,1
53,0.573745,2,0,26,3,9,1,1
53,0.889386,1,0,87,4,9,1,1
53,0.592914,1,0,39,4,9,2,2
53,0.756003,1,0,108,1,2,3,2
53,0.624158,1,0,92,4,11,1,1
53,0.55488,1,0,71,2,12,1,1
53,0.551692,2,0,131,3,4,1,1
53,0.627298,1,0,57,1,11,1,1
53,0.645334,1,0,125,3,4,3,2
53,0.789054,1,0,115,2,1,1,1
53,0.734853,1,0,122,3,4,3,2
53,0.556934,2,0,19,2,11,0,2
53,0.592881,1,0,130,3,4,2,2
53,0.484065,2,0,40,4,10,2,2
53,0.578396,1,0,11,1,12,1,1
53,0.748816,1,0,73,3,9,1,1
53,0.553615,1,0,77,3,10,1,1
53,0.50141,1,0,34,3,12,2,2
53,0.451596,2,0,63,2,9,1,1
53,0.403174,2,1,62,2,9,1,1
53,0.51764,1,0,93,4,11,1,1
53,0.531882,1,0,36,3,12,1,1
53,0.489338,2,0,94,4,12,1,1
53,0.736402,2,0,6,1,10,0,2
53,0.533874,1,0,95,4,12,1,1
53,0.707062,1,0,81,3,11,1,1
53,0.625856,2,1,143,4,3,3,2
53,1.011391,2,0,44,4,11,1,1
53,0.644192,1,0,139,4,3,1,1
53,0.470366,2,0,88,4,10,1,1
53,0.517247,2,0,142,4,3,2,2
53,0.475069,2,0,16,2,10,1,1
53,0.731064,1,0,67,2,11,1,1
53,0.399487,2,0,127,3,4,3,2
53,0.481206,2,0,75,3,9,1,1
53,0.464763,2,0,7,1,11,0,2
53,0.616736,1,0,119,2,1,3,2
53,0.514179,1,0,86,4,9,1,1
53,0.935165,2,0,27,3,9,1,1
53,0.619545,1,0,42,4,10,3,2
53,0.477684,2,0,103,1,2,1,1
53,0.469867,2,0,89,4,10,1,1
53,0.565253,1,0,15,2,9,3,2
53,0.689238,1,0,61,2,9,1,1
53,0.55977,1,0,58,1,12,1,1
53,0.531874,1,1,118,2,1,2,2
53,0.417004,2,0,85,4,9,1,1
53,0.563391,1,0,49,1,9,1,1
53,0.599023,1,0,109,2,1,1,1
53,0.505093,1,0,107,1,2,1,1
53,0.534496,1,0,90,4,10,1,1
53,0.534725,1,0,53,1,10,1,1
53,0.499335,2,0,3,1,9,1,1
53,0.458174,1,0,24,2,12,1,1
53,0.442728,1,0,79,3,11,1,1
53,0.635495,2,0,140,4,3,1,1
53,0.500013,1,0,87,4,9,1,1
53,0.466027,2,0,46,4,12,0,2
53,0.432887,2,0,60,1,12,1,1
53,0.441382,2,0,85,4,9,1,1
53,0.505802,1,0,68,2,11,1,1
53,0.656743,2,0,80,3,11,1,1
53,0.560954,1,0,11,1,12,1,1
53,0.59719,2,1,8,1,11,3,2
53,0.510865,2,0,129,3,4,1,1
53,0.46867,2,0,75,3,9,1,1
53,0.52479,2,0,118,2,1,2,2
53,0.601887,2,0,59,1,12,1,1
53,0.54837,1,0,93,4,11,1,1
53,0.553044,2,0,91,4,11,1,1
53,0.749211,1,0,109,2,1,1,1
53,1.090049,1,0,122,3,4,3,2
53,0.408221,2,0,70,2,12,1,1
53,0.595821,1,0,38,4,9,1,1
53,0.645532,2,0,94,4,12,1,1
53,0.701924,1,0,12,1,12,2,2
53,0.452744,2,0,40,4,10,2,2
53,0.469424,2,0,9,1,11,3,2
53,0.444916,2,0,113,2,1,1,1
53,0.709649,1,0,106,1,2,1,1
53,0.698537,2,0,128,3,4,2,2
53,0.68117,1,0,33,3,11,1,1
53,0.663092,1,0,37,4,9,1,1
53,0.583581,2,0,78,3,10,1,1
53,0.450582,2,0,120,2,1,1,1
53,0.499197,2,0,44,4,11,1,1
53,0.553131,1,0,57,1,11,1,1
53,0.524689,1,0,141,4,3,2,2
53,1.834712,2,0,31,3,11,0,2
53,0.467842,2,0,23,2,12,1,1
53,0.658833,1,0,17,2,10,0,2
53,0.555709,1,0,84,3,12,1,1
53,0.871026,1,0,126,3,4,2,2
53,0.429815,2,0,89,4,10,1,1
53,0.495241,2,0,45,4,11,1,1
53,0.317199,2,0,51,1,9,1,1
53,0.499695,1,0,52,1,10,1,1
53,0.505927,1,0,115,2,1,1,1
53,0.848797,2,0,123,3,4,3,2
53,0.513012,1,0,4,1,10,1,1
53,0.615165,1,0,107,1,2,1,1
53,0.520519,1,0,43,4,11,0,2
53,0.510669,1,0,95,4,12,1,1
53,0.428022,1,0,83,3,12,1,1
53,0.430304,1,0,20,2,11,0,2
53,0.590853,2,0,10,1,12,1,1
53,0.57003,1,0,92,4,11,1,1
53,1.26953,1,1,110,2,1,3,2
53,0.485177,2,0,63,2,9,1,1
53,0.93252,2,0,41,4,10,0,2
53,0.561691,1,0,99,1,2,2,2
53,0.52637,2,1,35,3,12,3,2
53,0.468081,2,0,104,1,2,2,2
53,1.066848,1,0,125,3,4,3,2
53,0.826351,1,0,130,3,4,2,2
53,0.690904,1,0,15,2,9,3,2
53,0.713997,2,0,76,3,10,1,1
53,0.455733,2,0,127,3,4,3,2
53,0.623525,2,0,26,3,9,1,1
53,0.665084,1,0,39,4,9,2,2
53,0.808565,1,0,67,2,11,1,1
53,0.618344,1,0,56,1,11,1,1
53,0.715268,1,0,48,4,12,3,2
53,0.987659,2,0,6,1,10,0,2
53,1.317852,1,0,108,1,2,3,2
53,0.531217,1,0,1,1,9,0,2
53,1.416055,2,0,100,1,2,3,2
53,0.616921,2,0,27,3,9,1,1
53,0.506046,1,0,66,2,10,1,1
53,0.504727,2,0,30,3,10,2,2
53,0.90323,1,0,34,3,12,2,2
53,0.540958,1,0,119,2,1,3,2
53,0.745248,1,0,2,1,9,0,2
53,0.526308,2,0,114,2,1,2,2
53,0.403629,2,0,22,2,12,2,2
53,0.708467,2,0,7,1,11,0,2
53,0.562604,2,0,117,2,1,3,2
53,0.701388,2,0,5,1,10,2,2
53,0.444746,2,0,103,1,2,1,1
53,0.460946,2,0,135,4,3,3,2
53,0.812295,1,0,111,2,1,2,2
53,0.534267,2,0,32,3,11,0,2
53,0.522825,2,0,18,2,10,3,2
53,0.551377,1,0,61,2,9,1,1
53,0.636957,2,0,65,2,10,1,1
53,0.781671,1,0,42,4,10,3,2
53,0.520403,1,0,143,4,3,3,2
53,0.605036,2,0,82,3,12,1,1
53,0.855087,1,0,49,1,9,1,1
53,0.719647,1,0,62,2,9,1,1
53,1.213137,1,0,21,2,11,2,2
53,0.646387,1,0,36,3,12,1,1
53,0.535107,1,0,124,3,4,1,1
53,0.5405,1,0,58,1,12,1,1
53,0.448983,2,0,88,4,10,1,1
53,0.488222,1,0,14,2,9,1,1
53,0.528414,2,0,72,2,12,1,1
53,0.358651,2,0,105,1,2,1,1
53,0.594343,2,0,136,4,3,3,2
53,0.412151,2,0,50,1,9,1,1
53,0.405787,2,0,121,3,4,2,2
53,0.600316,1,0,116,2,1,3,2
53,0.682454,1,0,112,2,1,2,2
53,0.74461,1,0,137,4,3,3,2
53,0.541252,1,0,139,4,3,1,1
53,0.69827,2,0,47,4,12,0,2
53,0.519817,1,0,77,3,10,1,1
53,0.564945,2,0,55,1,11,1,1
53,0.60054,1,0,134,4,3,1,1
53,0.515422,1,0,71,2,12,1,1
53,0.528393,1,0,73,3,9,1,1
53,0.65348,2,0,64,2,10,1,1
53,0.477772,1,0,86,4,9,1,1
53,0.524811,2,0,142,4,3,2,2
53,0.642635,1,0,28,3,10,0,2
53,0.563508,2,0,138,4,3,1,1
53,0.710587,1,0,97,1,2,2,2
53,0.468496,1,0,132,3,4,1,1
53,0.380341,1,0,81,3,11,1,1
53,0.535025,2,1,144,4,3,2,2
53,0.467355,1,1,96,4,12,1,1
53,0.51496,1,0,25,3,9,3,2
53,0.495641,2,0,133,4,3,2,2
53,0.510531,1,0,90,4,10,1,1
53,0.652147,2,0,54,1,10,1,1
53,0.573386,2,0,101,1,2,3,2
53,0.592541,1,1,98,1,2,2,2
53,0.498907,2,0,69,2,11,1,1
53,0.552589,2,0,29,3,10,0,2
53,0.413715,2,0,16,2,10,1,1
53,0.551243,2,0,19,2,11,0,2
53,0.570434,2,0,131,3,4,1,1
53,0.534178,2,0,74,3,9,1,1
53,0.810397,1,0,102,1,2,3,2
53,0.636477,2,0,13,2,9,0,2
54,3.902801,2,0,75,3,9,1,1
54,1.196305,1,0,76,3,10,1,1
54,0.607158,1,0,105,1,2,3,2
54,0.992926,1,0,23,2,12,3,2
54,0.812995,1,0,58,1,12,1,1
54,0.846864,2,0,89,4,10,1,1
54,0.694985,2,0,137,4,3,3,2
54,0.750097,1,0,69,2,11,1,1
54,0.84304,2,0,115,2,1,2,2
54,0.716172,1,0,68,2,11,1,1
54,0.754023,1,0,99,1,2,3,2
54,0.711179,2,0,108,1,2,1,1
54,0.972744,1,0,33,3,11,2,2
54,1.041738,1,0,22,2,12,1,1
54,0.890964,1,0,8,1,11,0,2
54,0.850397,2,1,47,4,12,1,1
54,0.714545,1,0,126,3,4,2,2
54,0.944851,2,0,112,2,1,1,1
54,0.830004,2,0,7,1,11,3,2
54,0.647616,1,0,119,2,1,3,2
54,0.584209,1,0,88,4,10,1,1
54,1.155392,2,0,42,4,10,1,1
54,0.871955,2,0,25,3,9,3,2
54,0.759481,1,0,53,1,10,1,1
54,0.676044,2,0,24,2,12,0,2
54,1.036478,1,0,124,3,4,1,1
54,0.773457,1,0,57,1,11,1,1
54,0.66526,1,0,55,1,11,1,1
54,0.825469,1,0,117,2,1,3,2
54,0.843124,2,0,28,3,10,3,2
54,0.892119,2,0,91,4,11,1,1
54,0.883494,2,0,114,2,1,2,2
54,1.0505,1,0,36,3,12,2,2
54,1.11561,2,0,32,3,11,0,2
54,1.113414,2,0,103,1,2,2,2
54,0.663093,2,0,141,4,3,1,1
54,0.967484,1,0,101,1,2,3,2
54,0.883011,2,0,109,2,1,2,2
54,1.249654,2,0,43,4,11,0,2
54,0.723115,2,0,71,2,12,1,1
54,0.696241,1,0,81,3,11,1,1
54,0.887757,1,0,10,1,12,3,2
54,0.814819,1,0,142,4,3,1,1
54,0.712495,2,0,27,3,9,1,1
54,1.054883,2,0,78,3,10,1,1
54,0.775687,2,0,93,4,11,1,1
54,0.547479,2,0,129,3,4,1,1
54,0.800066,2,0,125,3,4,3,2
54,0.962879,1,0,46,4,12,2,2
54,0.822353,1,0,123,3,4,2,2
54,0.984605,1,0,84,3,12,1,1
54,0.642742,1,0,26,3,9,0,2
54,0.828232,2,0,18,2,10,1,1
54,0.734274,1,0,110,2,1,1,1
54,2.052144,1,1,41,4,10,0,2
54,1.124818,2,0,127,3,4,3,2
54,0.698986,1,0,98,1,2,1,1
54,1.129735,1,0,135,4,3,2,2
54,0.757866,1,0,96,4,12,1,1
54,0.691201,2,0,65,2,10,1,1
54,0.874151,2,0,139,4,3,3,2
54,0.714717,2,0,128,3,4,2,2
54,0.703746,1,0,138,4,3,1,1
54,0.575152,1,0,82,3,12,1,1
54,0.755163,1,0,13,2,9,0,2
54,0.688052,2,0,4,1,10,2,2
54,0.870567,1,0,48,4,12,0,2
54,0.590845,1,1,31,3,11,1,1
54,0.770217,1,0,131,3,4,3,2
54,0.749926,2,0,63,2,9,1,1
54,0.69928,2,0,60,1,12,1,1
54,0.777067,2,0,15,2,9,3,2
54,0.6883,1,0,132,3,4,1,1
54,0.87915,2,0,37,4,9,3,2
54,0.751931,1,1,12,1,12,0,2
54,0.62012,1,0,121,3,4,2,2
54,0.717561,1,0,40,4,10,1,1
54,0.691473,2,0,80,3,11,1,1
54,0.691165,1,0,77,3,10,1,1
54,0.946487,2,0,6,1,10,1,1
54,1.023443,1,0,45,4,11,2,2
54,1.225352,1,0,100,1,2,2,2
54,0.667343,1,0,143,4,3,3,2
54,0.819742,2,0,66,2,10,1,1
54,0.845076,1,0,116,2,1,3,2
54,0.68542,1,0,95,4,12,1,1
54,0.88485,1,0,34,3,12,1,1
54,0.756601,2,0,106,1,2,2,2
54,0.744412,2,0,44,4,11,1,1
54,0.805892,2,0,97,1,2,3,2
54,0.777127,1,0,136,4,3,2,2
54,0.725091,1,0,2,1,9,1,1
54,0.874927,1,0,11,1,12,2,2
54,0.747148,1,0,38,4,9,0,2
54,0.639511,1,1,144,4,3,3,2
54,0.70485,1,0,64,2,10,1,1
54,0.711511,2,0,16,2,10,1,1
54,0.701473,2,0,70,2,12,1,1
54,0.619205,2,0,5,1,10,1,1
54,0.733873,2,0,87,4,9,1,1
54,0.667355,1,0,67,2,11,1,1
54,0.602983,2,0,51,1,9,1,1
54,0.733714,1,0,104,1,2,1,1
54,0.755561,1,0,120,2,1,2,2
54,0.711924,1,0,74,3,9,1,1
54,0.709871,2,0,130,3,4,1,1
54,0.707543,2,0,54,1,10,1,1
54,0.890804,1,0,3,1,9,0,2
54,0.730497,2,0,20,2,11,0,2
54,0.663277,1,0,94,4,12,1,1
54,0.654982,1,0,72,2,12,1,1
54,0.647526,2,0,107,1,2,1,1
54,0.936967,1,1,83,3,12,1,1
54,0.566102,2,0,50,1,9,1,1
54,0.609146,1,0,62,2,9,1,1
54,0.69263,2,0,134,4,3,1,1
54,0.643789,1,0,30,3,10,1,1
54,0.620765,2,0,39,4,9,3,2
54,0.631073,2,0,73,3,9,1,1
54,0.784179,1,1,49,1,9,1,1
54,0.523437,2,0,90,4,10,1,1
54,0.601459,2,0,9,1,11,0,2
54,0.627341,2,0,17,2,10,2,2
54,0.710001,1,0,59,1,12,1,1
54,0.8926,1,0,133,4,3,2,2
54,0.908342,1,0,1,1,9,1,1
54,0.810933,1,1,79,3,11,1,1
54,0.765228,2,0,102,1,2,2,2
54,0.753736,2,0,113,2,1,3,2
54,0.814255,1,0,85,4,9,1,1
54,0.840221,1,0,21,2,11,2,2
54,0.880411,1,0,14,2,9,1,1
54,1.144259,2,0,140,4,3,2,2
54,0.757029,1,0,19,2,11,0,2
54,0.82594,2,0,29,3,10,0,2
54,0.891909,1,0,92,4,11,1,1
54,0.6027,2,0,122,3,4,3,2
54,0.54883,2,1,56,1,11,1,1
54,0.905942,1,0,118,2,1,1,1
54,0.608808,2,0,61,2,9,1,1
54,0.875445,1,0,35,3,12,0,2
54,1.186515,2,0,52,1,10,1,1
54,0.87044,2,0,111,2,1,1,1
54,0.853717,2,0,86,4,9,1,1
54,0.760282,1,0,85,4,9,1,1
54,0.788817,2,0,137,4,3,3,2
54,0.736676,1,0,94,4,12,1,1
54,0.645678,1,0,135,4,3,2,2
54,0.534364,1,0,64,2,10,1,1
54,0.59575,1,0,11,1,12,2,2
54,0.574418,1,0,3,1,9,0,2
54,1.242807,2,0,107,1,2,1,1
54,0.987558,2,0,75,3,9,1,1
54,0.558509,2,0,31,3,11,1,1
54,0.691931,2,0,144,4,3,3,2
54,0.427218,2,0,140,4,3,2,2
54,0.444906,2,1,69,2,11,1,1
54,0.510099,1,0,88,4,10,1,1
54,0.820829,2,0,20,2,11,0,2
54,0.535082,1,1,28,3,10,3,2
54,0.644493,2,0,79,3,11,1,1
54,0.541229,1,0,14,2,9,1,1
54,0.546435,1,0,142,4,3,1,1
54,0.727029,2,0,37,4,9,3,2
54,0.589132,2,0,80,3,11,1,1
54,0.680479,2,0,83,3,12,1,1
54,0.583097,2,1,120,2,1,2,2
54,0.667005,2,0,66,2,10,1,1
54,0.698994,1,0,131,3,4,3,2
54,0.817259,2,0,15,2,9,3,2
54,0.795547,1,0,1,1,9,1,1
54,0.765995,2,0,52,1,10,1,1
54,0.713983,2,0,97,1,2,3,2
54,0.598561,2,0,91,4,11,1,1
54,0.608852,2,0,115,2,1,2,2
54,0.627489,1,0,96,4,12,1,1
54,0.509291,1,0,138,4,3,1,1
54,0.635729,2,0,49,1,9,1,1
54,0.771939,1,0,74,3,9,1,1
54,0.544366,2,1,13,2,9,0,2
54,0.525347,1,0,117,2,1,3,2
54,0.595574,1,1,103,1,2,2,2
54,0.677884,1,1,17,2,10,2,2
54,0.597014,2,0,32,3,11,0,2
54,0.80804,2,0,130,3,4,1,1
54,0.762325,2,0,73,3,9,1,1
54,0.695374,1,0,55,1,11,1,1
54,0.693522,1,0,132,3,4,1,1
54,0.804505,1,0,104,1,2,1,1
54,0.886802,2,0,6,1,10,1,1
54,0.77405,1,0,92,4,11,1,1
54,0.642323,2,0,54,1,10,1,1
54,0.627179,1,0,57,1,11,1,1
54,0.677253,1,0,98,1,2,1,1
54,0.693208,2,0,39,4,9,3,2
54,0.7325,2,0,125,3,4,3,2
54,0.906324,1,0,30,3,10,1,1
54,0.784224,1,0,95,4,12,1,1
54,1.04293,1,0,58,1,12,1,1
54,0.684959,2,0,71,2,12,1,1
54,0.644056,2,0,42,4,10,1,1
54,0.780782,1,0,33,3,11,2,2
54,0.55242,1,0,67,2,11,1,1
54,0.572988,1,0,59,1,12,1,1
54,0.632818,2,0,41,4,10,0,2
54,0.769421,1,0,34,3,12,1,1
54,0.614369,1,0,46,4,12,2,2
54,0.600326,1,0,84,3,12,1,1
54,0.522397,1,0,56,1,11,1,1
54,0.696846,1,1,93,4,11,1,1
54,0.615621,1,0,82,3,12,1,1
54,0.728959,2,0,60,1,12,1,1
54,0.711578,1,0,110,2,1,1,1
54,0.718091,2,0,102,1,2,2,2
54,0.564115,2,0,51,1,9,1,1
54,0.695863,1,0,77,3,10,1,1
54,1.124162,1,0,119,2,1,3,2
54,0.714469,2,0,24,2,12,0,2
54,0.76811,1,0,126,3,4,2,2
54,0.691752,2,0,129,3,4,1,1
54,0.675498,2,0,61,2,9,1,1
54,0.674814,1,0,136,4,3,2,2
54,0.922051,1,1,25,3,9,3,2
54,0.72047,2,0,7,1,11,3,2
54,0.734265,1,0,38,4,9,0,2
54,0.651191,1,0,124,3,4,1,1
54,0.660748,1,0,48,4,12,0,2
54,0.564971,1,1,139,4,3,3,2
54,0.680871,2,0,29,3,10,0,2
54,0.975493,1,0,99,1,2,3,2
54,0.626846,2,0,108,1,2,1,1
54,0.629906,1,0,36,3,12,2,2
54,0.798796,2,0,4,1,10,2,2
54,1.361389,1,0,101,1,2,3,2
54,0.797616,2,0,16,2,10,1,1
54,0.655188,2,0,127,3,4,3,2
54,0.824601,1,0,133,4,3,2,2
54,0.674756,1,0,35,3,12,0,2
54,0.986413,1,0,68,2,11,1,1
54,1.053771,2,0,63,2,9,1,1
54,0.718035,2,0,90,4,10,1,1
54,0.844133,1,0,62,2,9,1,1
54,0.805945,1,0,19,2,11,0,2
54,0.864248,2,0,113,2,1,3,2
54,0.848331,1,0,116,2,1,3,2
54,1.056573,1,0,23,2,12,3,2
54,0.616745,1,0,21,2,11,2,2
54,0.731099,2,0,122,3,4,3,2
54,0.712162,2,0,50,1,9,1,1
54,0.734522,2,0,89,4,10,1,1
54,0.466931,2,1,40,4,10,1,1
54,0.627137,2,0,27,3,9,1,1
54,0.685655,2,0,112,2,1,1,1
54,0.612564,1,0,72,2,12,1,1
54,0.654382,2,0,44,4,11,1,1
54,0.590831,2,0,111,2,1,1,1
54,1.306553,1,0,121,3,4,2,2
54,0.641251,1,1,9,1,11,0,2
54,0.577612,2,0,141,4,3,1,1
54,0.605933,2,0,18,2,10,1,1
54,0.721167,1,0,45,4,11,2,2
54,0.655198,2,1,2,1,9,1,1
54,0.766991,2,0,86,4,9,1,1
54,0.691633,1,0,143,4,3,3,2
54,1.258893,2,0,106,1,2,2,2
54,0.755292,1,0,8,1,11,0,2
54,0.703164,2,0,114,2,1,2,2
54,0.774736,1,0,26,3,9,0,2
54,0.554617,1,0,118,2,1,1,1
54,0.647038,1,0,81,3,11,1,1
54,0.511959,1,0,47,4,12,1,1
54,0.956604,2,0,70,2,12,1,1
54,0.52845,2,0,87,4,9,1,1
54,0.718432,2,0,128,3,4,2,2
54,0.468042,2,0,43,4,11,0,2
54,0.612279,1,0,123,3,4,2,2
54,0.701994,1,1,78,3,10,1,1
54,0.525449,1,0,53,1,10,1,1
54,1.259156,1,1,65,2,10,1,1
54,0.715712,1,0,100,1,2,2,2
54,0.633231,1,0,22,2,12,1,1
54,1.06602,2,0,5,1,10,1,1
54,0.481789,2,0,12,1,12,0,2
54,0.76949,1,0,76,3,10,1,1
54,0.653068,1,0,10,1,12,3,2
54,0.805314,2,0,109,2,1,2,2
54,0.575596,1,0,105,1,2,3,2
54,0.707687,1,1,134,4,3,1,1
54,1.360806,2,0,50,1,9,1,1
54,0.757465,1,0,57,1,11,1,1
54,0.642015,2,0,52,1,10,1,1
54,0.611584,1,0,64,2,10,1,1
54,0.525608,2,0,65,2,10,1,1
54,0.603767,1,0,58,1,12,1,1
54,2.342686,2,0,113,2,1,3,2
54,0.451855,1,0,84,3,12,1,1
54,1.180434,1,0,30,3,10,1,1
54,0.567681,1,0,77,3,10,1,1
54,0.55547,1,0,81,3,11,1,1
54,0.584408,2,0,9,1,11,0,2
54,0.515809,2,0,71,2,12,1,1
54,0.649904,1,1,63,2,9,1,1
54,0.497757,1,1,102,1,2,2,2
54,1.136668,1,0,119,2,1,3,2
54,0.630204,2,0,89,4,10,1,1
54,0.655065,1,0,56,1,11,1,1
54,0.69583,1,0,132,3,4,1,1
54,0.598527,2,0,61,2,9,1,1
54,0.665896,1,0,35,3,12,0,2
54,0.569983,2,0,114,2,1,2,2
54,1.013776,1,0,72,2,12,1,1
54,1.127576,1,0,121,3,4,2,2
54,0.621946,2,0,70,2,12,1,1
54,1.263943,2,0,27,3,9,1,1
54,0.59974,2,0,29,3,10,0,2
54,0.84253,1,0,120,2,1,2,2
54,0.731694,1,0,34,3,12,1,1
54,0.672578,1,0,36,3,12,2,2
54,1.00824,1,0,45,4,11,2,2
54,0.602405,1,1,97,1,2,3,2
54,0.685513,2,0,75,3,9,1,1
54,0.524436,2,0,122,3,4,3,2
54,1.146416,1,0,3,1,9,0,2
54,0.823445,1,0,69,2,11,1,1
54,0.656393,2,0,103,1,2,2,2
54,0.752731,1,0,104,1,2,1,1
54,0.677723,1,0,21,2,11,2,2
54,0.613838,1,0,116,2,1,3,2
54,0.568095,2,0,49,1,9,1,1
54,0.75566,2,0,90,4,10,1,1
54,0.527803,2,0,18,2,10,1,1
54,0.845899,1,0,143,4,3,3,2
54,0.566535,2,0,125,3,4,3,2
54,0.410756,2,0,139,4,3,3,2
54,0.493045,2,0,7,1,11,3,2
54,0.587688,2,0,60,1,12,1,1
54,0.519146,2,0,128,3,4,2,2
54,0.741289,1,0,19,2,11,0,2
54,0.961884,1,0,135,4,3,2,2
54,0.598511,1,0,85,4,9,1,1
54,0.673144,2,0,144,4,3,3,2
54,0.632606,1,0,74,3,9,1,1
54,0.522552,2,0,73,3,9,1,1
54,0.67209,1,1,141,4,3,1,1
54,0.704368,1,0,88,4,10,1,1
54,0.69461,2,0,78,3,10,1,1
54,0.574122,2,0,28,3,10,3,2
54,0.482338,2,0,130,3,4,1,1
54,0.553731,2,0,51,1,9,1,1
54,0.749737,1,0,124,3,4,1,1
54,0.538499,2,1,95,4,12,1,1
54,0.759498,2,0,93,4,11,1,1
54,0.644013,2,0,44,4,11,1,1
54,0.580508,1,0,126,3,4,2,2
54,0.856755,2,0,24,2,12,0,2
54,0.721086,2,0,140,4,3,2,2
54,0.510911,2,0,54,1,10,1,1
54,0.732216,1,0,82,3,12,1,1
54,1.081887,1,0,2,1,9,1,1
54,0.897114,2,0,108,1,2,1,1
54,0.836443,1,0,26,3,9,0,2
54,0.94126,1,0,100,1,2,2,2
54,0.522274,1,0,62,2,9,1,1
54,0.616872,1,0,117,2,1,3,2
54,0.465964,1,0,22,2,12,1,1
54,0.626863,1,0,48,4,12,0,2
54,0.491828,1,1,112,2,1,1,1
54,0.659522,2,0,4,1,10,2,2
54,0.579939,1,0,67,2,11,1,1
54,0.535238,1,0,138,4,3,1,1
54,0.460717,1,0,55,1,11,1,1
54,0.589276,2,0,25,3,9,3,2
54,0.529127,2,0,127,3,4,3,2
54,0.758078,2,0,115,2,1,2,2
54,0.658507,2,0,137,4,3,3,2
54,0.578702,1,0,105,1,2,3,2
54,0.742828,1,0,99,1,2,3,2
54,0.691788,1,0,133,4,3,2,2
54,0.651,1,0,14,2,9,1,1
54,0.763723,2,0,17,2,10,2,2
54,0.575525,2,1,118,2,1,1,1
54,0.611799,1,0,142,4,3,1,1
54,0.90964,1,0,8,1,11,0,2
54,0.964704,2,0,80,3,11,1,1
54,0.609016,2,0,79,3,11,1,1
54,0.706655,2,0,37,4,9,3,2
54,0.906006,2,0,12,1,12,0,2
54,0.631168,2,0,16,2,10,1,1
54,1.952298,1,0,46,4,12,2,2
54,0.764504,1,0,11,1,12,2,2
54,0.633087,1,0,110,2,1,1,1
54,0.994499,1,0,101,1,2,3,2
54,0.862051,2,0,109,2,1,2,2
54,0.845352,1,0,1,1,9,1,1
54,0.566008,1,1,42,4,10,1,1
54,0.537354,1,0,53,1,10,1,1
54,0.743551,2,0,83,3,12,1,1
54,0.837064,2,0,32,3,11,0,2
54,0.757599,2,0,66,2,10,1,1
54,0.474628,2,0,129,3,4,1,1
54,0.737981,1,0,96,4,12,1,1
54,0.582461,1,0,136,4,3,2,2
54,0.689992,1,0,47,4,12,1,1
54,0.81817,2,0,134,4,3,1,1
54,0.579936,1,0,13,2,9,0,2
54,0.550877,1,0,59,1,12,1,1
54,0.307701,1,1,20,2,11,0,2
54,0.769575,1,0,10,1,12,3,2
54,0.734268,2,0,41,4,10,0,2
54,0.555664,2,0,91,4,11,1,1
54,0.608253,2,0,107,1,2,1,1
54,0.48238,2,0,111,2,1,1,1
54,0.489331,2,0,43,4,11,0,2
54,0.545417,2,0,86,4,9,1,1
54,0.670376,2,0,87,4,9,1,1
54,0.582228,2,0,39,4,9,3,2
54,0.512909,2,0,15,2,9,3,2
54,0.7017,1,0,76,3,10,1,1
54,0.652449,2,0,31,3,11,1,1
54,0.452534,2,1,68,2,11,1,1
54,0.237254,1,0,131,3,4,3,2
54,0.550663,1,0,23,2,12,3,2
54,1.075993,1,0,92,4,11,1,1
54,0.651431,2,0,106,1,2,2,2
54,0.652521,1,0,40,4,10,1,1
54,0.588741,1,0,94,4,12,1,1
54,0.75114,2,0,5,1,10,1,1
54,0.620468,1,0,33,3,11,2,2
54,0.502349,1,0,98,1,2,1,1
54,0.028203,1,0,38,4,9,0,2
54,0.525052,1,0,123,3,4,2,2
54,0.50757,1,1,6,1,10,1,1
54,0.488402,1,1,41,4,10,0,2
54,0.704608,1,0,53,1,10,1,1
54,0.511042,1,1,129,3,4,1,1
54,0.444518,1,0,118,2,1,1,1
54,0.237631,2,1,85,4,9,1,1
54,1.286789,1,0,76,3,10,1,1
54,0.558605,1,0,95,4,12,1,1
54,0.658437,2,0,130,3,4,1,1
54,0.531209,1,0,74,3,9,1,1
54,0.69528,1,0,14,2,9,1,1
54,0.55135,1,1,93,4,11,1,1
54,0.586539,1,0,23,2,12,3,2
54,0.541963,1,0,34,3,12,1,1
54,2.011555,2,0,6,1,10,1,1
54,0.693258,1,1,5,1,10,1,1
54,0.748912,2,0,70,2,12,1,1
54,0.496918,2,0,29,3,10,0,2
54,0.471665,2,0,31,3,11,1,1
54,0.743112,1,0,3,1,9,0,2
54,0.642911,1,0,36,3,12,2,2
54,0.804831,2,0,80,3,11,1,1
54,0.678263,1,0,56,1,11,1,1
54,0.517819,1,0,68,2,11,1,1
54,0.627499,2,0,137,4,3,3,2
54,0.836801,1,1,28,3,10,3,2
54,0.550603,1,0,67,2,11,1,1
54,0.619266,2,0,66,2,10,1,1
54,0.565534,1,0,72,2,12,1,1
54,1.033666,2,0,50,1,9,1,1
54,0.658585,1,0,48,4,12,0,2
54,0.466672,1,0,81,3,11,1,1
54,0.650562,1,0,120,2,1,2,2
54,0.587989,1,0,38,4,9,0,2
54,0.910144,1,0,45,4,11,2,2
54,1.02999,2,0,61,2,9,1,1
54,0.743051,1,1,108,1,2,1,1
54,0.979311,2,0,39,4,9,3,2
54,0.639116,1,0,135,4,3,2,2
54,0.815815,2,0,127,3,4,3,2
54,0.530182,1,0,2,1,9,1,1
54,0.542856,1,1,111,2,1,1,1
54,0.507056,2,0,17,2,10,2,2
54,0.78548,1,0,35,3,12,0,2
54,0.492534,2,0,109,2,1,2,2
54,0.586844,2,0,115,2,1,2,2
54,0.477695,2,1,40,4,10,1,1
54,0.605564,2,0,60,1,12,1,1
54,0.664094,2,0,71,2,12,1,1
54,0.720157,2,0,27,3,9,1,1
54,0.637382,2,0,86,4,9,1,1
54,0.654634,2,0,83,3,12,1,1
54,0.001482,2,0,4,1,10,2,2
54,0.581926,1,0,55,1,11,1,1
54,0.577201,1,0,119,2,1,3,2
54,0.581383,2,0,44,4,11,1,1
54,0.976138,1,0,84,3,12,1,1
54,0.635758,1,0,92,4,11,1,1
54,0.621535,1,0,22,2,12,1,1
54,0.573878,2,0,140,4,3,2,2
54,0.890218,1,0,19,2,11,0,2
54,0.665916,2,0,141,4,3,1,1
54,0.705101,1,0,30,3,10,1,1
54,0.599125,2,0,7,1,11,3,2
54,0.674482,1,0,138,4,3,1,1
54,0.562091,2,0,75,3,9,1,1
54,0.813883,1,0,116,2,1,3,2
54,0.526829,2,0,52,1,10,1,1
54,0.660641,1,0,64,2,10,1,1
54,0.556823,2,0,43,4,11,0,2
54,1.194098,1,0,123,3,4,2,2
54,1.07756,2,0,89,4,10,1,1
54,0.540407,2,1,121,3,4,2,2
54,0.768221,2,0,97,1,2,3,2
54,0.860172,2,0,112,2,1,1,1
54,0.635893,1,0,58,1,12,1,1
54,1.268462,2,0,32,3,11,0,2
54,0.611945,1,0,47,4,12,1,1
54,0.637885,2,0,20,2,11,0,2
54,0.743715,1,0,8,1,11,0,2
54,0.580709,1,0,13,2,9,0,2
54,0.58396,2,0,102,1,2,2,2
54,0.577921,2,0,125,3,4,3,2
54,0.493482,2,1,132,3,4,1,1
54,0.877199,1,0,77,3,10,1,1
54,0.157089,2,1,62,2,9,1,1
54,0.233948,1,1,65,2,10,1,1
54,0.459504,2,0,18,2,10,1,1
54,0.363588,1,1,49,1,9,1,1
54,0.903956,2,0,144,4,3,3,2
54,0.669877,1,0,69,2,11,1,1
54,0.453403,2,1,98,1,2,1,1
54,0.33373,1,0,104,1,2,1,1
54,0.515635,1,0,26,3,9,0,2
54,0.368978,1,0,136,4,3,2,2
54,0.677229,2,0,54,1,10,1,1
54,0.621216,1,0,142,4,3,1,1
54,0.558799,1,0,101,1,2,3,2
54,0.516381,1,0,10,1,12,3,2
54,0.673434,2,0,90,4,10,1,1
54,0.68226,2,1,105,1,2,3,2
54,0.721419,2,0,128,3,4,2,2
54,0.263246,1,0,100,1,2,2,2
54,0.574871,1,0,88,4,10,1,1
54,0.578821,1,0,1,1,9,1,1
54,0.54998,2,0,15,2,9,3,2
54,0.530684,2,0,16,2,10,1,1
54,0.967526,2,0,12,1,12,0,2
54,0.570105,2,0,122,3,4,3,2
54,1.206829,1,0,124,3,4,1,1
54,0.657545,1,0,117,2,1,3,2
54,0.762461,2,0,134,4,3,1,1
54,0.533453,2,0,79,3,11,1,1
54,0.554173,2,0,91,4,11,1,1
54,0.830471,1,0,59,1,12,1,1
54,0.575602,2,0,113,2,1,3,2
54,0.730739,1,1,107,1,2,1,1
54,2.224384,2,0,51,1,9,1,1
54,0.801561,2,0,139,4,3,3,2
54,0.628182,2,0,78,3,10,1,1
54,1.237587,1,0,82,3,12,1,1
54,0.662573,1,0,110,2,1,1,1
54,0.550525,2,0,73,3,9,1,1
54,0.729993,1,0,143,4,3,3,2
54,0.863445,1,1,106,1,2,2,2
54,0.559592,1,1,87,4,9,1,1
54,0.531858,2,0,25,3,9,3,2
54,1.280137,1,0,94,4,12,1,1
54,0.551585,1,0,57,1,11,1,1
54,0.764131,1,0,99,1,2,3,2
54,0.839994,2,0,103,1,2,2,2
54,0.553028,1,0,46,4,12,2,2
54,0.590099,1,1,63,2,9,1,1
54,0.52151,2,0,114,2,1,2,2
54,1.158162,1,0,33,3,11,2,2
54,0.786094,2,0,37,4,9,3,2
54,0.852826,1,0,126,3,4,2,2
54,0.66844,2,0,42,4,10,1,1
54,0.732256,1,0,131,3,4,3,2
54,0.658062,1,0,133,4,3,2,2
54,0.465611,2,0,24,2,12,0,2
54,0.665348,1,0,11,1,12,2,2
54,0.640347,1,0,96,4,12,1,1
54,0.826123,1,1,9,1,11,0,2
54,0.77958,1,0,21,2,11,2,2
55,1.209509,2,0,70,2,12,1,1
55,2.306707,2,0,129,3,4,1,1
55,0.768415,1,0,141,4,3,2,2
55,0.723782,2,0,51,1,9,1,1
55,1.808812,1,0,58,1,12,1,1
55,0.794282,2,0,43,4,11,0,2
55,0.876139,2,0,30,3,10,0,2
55,0.810634,1,0,137,4,3,2,2
55,0.741134,2,0,133,4,3,2,2
55,1.089619,1,1,41,4,10,0,2
55,0.665367,2,1,142,4,3,3,2
55,0.649091,1,0,4,1,10,3,2
55,0.961478,2,0,5,1,10,0,2
55,0.763964,2,0,140,4,3,3,2
55,0.712842,2,0,123,3,4,2,2
55,0.678782,2,0,91,4,11,1,1
55,0.597636,2,1,15,2,9,1,1
55,1.255967,1,0,124,3,4,3,2
55,1.239542,1,0,21,2,11,2,2
55,0.621106,2,0,72,2,12,1,1
55,0.782358,1,0,61,2,9,1,1
55,1.78602,1,0,48,4,12,1,1
55,0.844733,2,0,7,1,11,2,2
55,0.604947,2,0,16,2,10,2,2
55,0.678852,1,0,23,2,12,0,2
55,1.23076,2,0,74,3,9,1,1
55,0.624467,1,0,90,4,10,1,1
55,1.306443,2,0,113,2,1,1,1
55,1.913296,1,0,28,3,10,3,2
55,0.982546,2,0,54,1,10,1,1
55,0.69055,2,0,103,1,2,3,2
55,0.665801,2,1,128,3,4,3,2
55,0.75251,1,0,82,3,12,1,1
55,0.749758,1,0,38,4,9,3,2
55,0.706289,2,0,95,4,12,1,1
55,0.927899,1,0,47,4,12,1,1
55,0.549659,1,0,12,1,12,1,1
55,0.825632,2,0,131,3,4,3,2
55,1.033879,1,0,33,3,11,0,2
55,0.851457,1,0,99,1,2,2,2
55,0.732632,2,0,40,4,10,2,2
55,0.825028,1,0,24,2,12,0,2
55,0.690737,2,0,39,4,9,1,1
55,2.473383,2,0,108,1,2,3,2
55,0.640911,2,0,77,3,10,1,1
55,0.650247,2,0,36,3,12,2,2
55,0.626037,1,0,46,4,12,2,2
55,0.555905,2,0,1,1,9,1,1
55,0.552688,1,0,35,3,12,1,1
55,2.188511,2,0,65,2,10,1,1
55,0.798561,2,0,136,4,3,3,2
55,0.833322,1,0,31,3,11,3,2
55,0.519272,1,0,122,3,4,1,1
55,0.517163,1,0,86,4,9,1,1
55,0.403624,1,0,19,2,11,1,1
55,0.749705,1,0,144,4,3,3,2
55,0.490352,1,0,67,2,11,1,1
55,0.689181,1,0,11,1,12,0,2
55,0.456171,1,0,80,3,11,1,1
55,0.592395,1,0,101,1,2,1,1
55,0.667551,2,0,132,3,4,3,2
55,0.608265,1,0,121,3,4,1,1
55,0.682613,2,0,6,1,10,1,1
55,0.586462,1,0,52,1,10,1,1
55,0.541293,2,0,13,2,9,3,2
55,0.497384,2,0,62,2,9,1,1
55,0.664287,1,0,127,3,4,2,2
55,1.136608,2,0,114,2,1,3,2
55,0.485145,2,0,57,1,11,1,1
55,1.060062,2,0,115,2,1,1,1
55,0.796542,1,0,88,4,10,1,1
55,1.070969,1,0,98,1,2,3,2
55,1.150449,2,0,50,1,9,1,1
55,0.619557,1,0,109,2,1,3,2
55,0.524355,1,0,37,4,9,0,2
55,0.402943,1,0,96,4,12,1,1
55,0.557096,2,0,102,1,2,2,2
55,1.057742,2,0,78,3,10,1,1
55,0.529038,2,0,104,1,2,2,2
55,0.743575,2,0,85,4,9,1,1
55,0.451412,2,0,117,2,1,3,2
55,0.508595,1,1,53,1,10,1,1
55,0.802173,2,0,112,2,1,2,2
55,0.981488,1,0,68,2,11,1,1
55,0.571819,1,0,110,2,1,1,1
55,0.727461,1,0,63,2,9,1,1
55,0.709606,2,0,81,3,11,1,1
55,0.811934,1,0,55,1,11,1,1
55,0.742049,1,0,3,1,9,2,2
55,0.506915,1,0,29,3,10,1,1
55,0.834446,1,0,14,2,9,3,2
55,0.627219,2,0,89,4,10,1,1
55,0.66101,2,0,34,3,12,1,1
55,1.46806,1,0,59,1,12,1,1
55,0.79529,2,0,73,3,9,1,1
55,0.709417,1,0,84,3,12,1,1
55,1.224778,2,0,71,2,12,1,1
55,0.60988,2,0,44,4,11,0,2
55,1.115379,2,0,138,4,3,2,2
55,0.672544,2,0,94,4,12,1,1
55,0.776695,1,0,75,3,9,1,1
55,1.251718,1,0,130,3,4,2,2
55,0.627942,2,0,17,2,10,0,2
55,0.661512,1,0,105,1,2,3,2
55,0.580973,2,0,32,3,11,1,1
55,0.808042,1,0,83,3,12,1,1
55,0.930504,1,0,111,2,1,1,1
55,0.65454,2,0,27,3,9,0,2
55,1.071673,2,0,66,2,10,1,1
55,0.991193,2,0,125,3,4,2,2
55,0.786611,1,0,139,4,3,1,1
55,0.772371,1,0,120,2,1,3,2
55,0.912501,2,0,25,3,9,0,2
55,0.758164,1,0,119,2,1,2,2
55,0.96313,1,0,116,2,1,2,2
55,0.85503,2,0,92,4,11,1,1
55,0.758476,1,0,49,1,9,1,1
55,0.506181,1,0,69,2,11,1,1
55,0.704298,2,0,118,2,1,2,2
55,0.95366,1,0,10,1,12,1,1
55,0.602711,2,0,56,1,11,1,1
55,1.740123,1,0,9,1,11,0,2
55,0.529163,1,0,76,3,10,1,1
55,0.701978,2,0,126,3,4,1,1
55,0.728223,1,0,97,1,2,2,2
55,0.941329,2,1,64,2,10,1,1
55,0.714197,2,0,8,1,11,3,2
55,0.61661,1,0,100,1,2,1,1
55,0.706415,1,0,42,4,10,3,2
55,0.640248,2,0,45,4,11,1,1
55,0.776712,2,0,106,1,2,1,1
55,0.691197,1,0,87,4,9,1,1
55,0.562381,2,0,2,1,9,0,2
55,0.630441,2,0,18,2,10,1,1
55,0.551698,2,0,135,4,3,1,1
55,0.74003,1,0,26,3,9,2,2
55,0.641486,2,0,107,1,2,1,1
55,0.993991,2,0,79,3,11,1,1
55,0.627603,1,1,20,2,11,0,2
55,0.571653,1,0,134,4,3,1,1
55,0.592293,2,0,22,2,12,1,1
55,0.780249,1,0,60,1,12,1,1
55,0.534627,2,0,143,4,3,1,1
55,0.627032,1,0,93,4,11,1,1
55,1.156602,2,0,126,3,4,1,1
55,1.025067,2,0,108,1,2,3,2
55,0.49815,2,0,140,4,3,3,2
55,0.552518,2,0,81,3,11,1,1
55,0.909254,2,0,5,1,10,0,2
55,0.676306,1,0,100,1,2,1,1
55,1.051798,1,0,116,2,1,2,2
55,0.724208,1,0,96,4,12,1,1
55,0.761181,2,0,94,4,12,1,1
55,1.164352,1,1,138,4,3,2,2
55,1.871948,2,1,58,1,12,1,1
55,1.455457,1,0,124,3,4,3,2
55,0.935775,2,0,20,2,11,0,2
55,0.732998,1,0,134,4,3,1,1
55,0.590572,2,0,32,3,11,1,1
55,0.504349,1,0,59,1,12,1,1
55,0.56741,2,0,39,4,9,1,1
55,0.939286,1,0,11,1,12,0,2
55,0.337205,2,0,78,3,10,1,1
55,0.253458,1,1,7,1,11,2,2
55,0.965218,2,0,129,3,4,1,1
55,0.569818,2,0,131,3,4,3,2
55,0.669747,1,0,130,3,4,2,2
55,1.597231,1,0,121,3,4,1,1
55,3.375866,2,0,1,1,9,1,1
55,0.403105,2,0,57,1,11,1,1
55,1.021804,2,0,16,2,10,2,2
55,0.59978,2,0,143,4,3,1,1
55,0.594645,1,0,75,3,9,1,1
55,0.661039,2,0,13,2,9,3,2
55,1.116645,1,0,55,1,11,1,1
55,0.970024,1,0,119,2,1,2,2
55,0.749341,1,0,47,4,12,1,1
55,0.778804,1,0,3,1,9,2,2
55,0.613331,1,0,86,4,9,1,1
55,0.831358,1,0,28,3,10,3,2
55,0.415656,1,0,4,1,10,3,2
55,0.821397,2,0,25,3,9,0,2
55,0.624052,1,0,139,4,3,1,1
55,0.745018,1,0,10,1,12,1,1
55,0.613778,1,0,142,4,3,3,2
55,0.511505,1,0,35,3,12,1,1
55,0.605918,1,0,82,3,12,1,1
55,0.743877,2,0,95,4,12,1,1
55,1.556977,2,0,45,4,11,1,1
55,0.985026,2,1,109,2,1,3,2
55,1.70713,1,0,60,1,12,1,1
55,0.569674,1,0,21,2,11,2,2
55,0.52579,1,0,67,2,11,1,1
55,0.586781,2,0,77,3,10,1,1
55,1.374114,2,0,51,1,9,1,1
55,0.872751,2,0,103,1,2,3,2
55,0.64885,2,0,30,3,10,0,2
55,0.961386,1,0,48,4,12,1,1
55,0.68552,1,0,128,3,4,3,2
55,0.692745,1,0,49,1,9,1,1
55,0.979576,1,0,14,2,9,3,2
55,0.575139,2,0,73,3,9,1,1
55,0.974688,1,0,93,4,11,1,1
55,0.48321,2,0,92,4,11,1,1
55,0.824524,1,0,68,2,11,1,1
55,0.763432,2,0,43,4,11,0,2
55,0.863187,2,0,74,3,9,1,1
55,1.615706,1,0,105,1,2,3,2
55,0.713497,2,0,106,1,2,1,1
55,0.735484,2,0,34,3,12,1,1
55,0.716684,1,0,141,4,3,2,2
55,0.906428,1,0,76,3,10,1,1
55,0.656307,2,0,18,2,10,1,1
55,1.096663,2,0,41,4,10,0,2
55,0.64749,2,0,85,4,9,1,1
55,0.752687,2,0,113,2,1,1,1
55,0.918781,2,0,8,1,11,3,2
55,0.877299,2,0,65,2,10,1,1
55,0.525037,2,0,17,2,10,0,2
55,0.603176,1,0,88,4,10,1,1
55,0.668636,2,0,102,1,2,2,2
55,0.804658,2,0,132,3,4,3,2
55,0.527609,2,0,62,2,9,1,1
55,0.931294,1,0,38,4,9,3,2
55,0.624916,1,0,64,2,10,1,1
55,1.027127,2,0,135,4,3,1,1
55,0.651754,2,0,50,1,9,1,1
55,1.332779,1,0,120,2,1,3,2
55,0.905655,1,0,101,1,2,1,1
55,1.159706,1,0,97,1,2,2,2
55,0.721563,1,0,87,4,9,1,1
55,0.831798,1,0,99,1,2,2,2
55,0.641053,1,0,9,1,11,0,2
55,0.585409,2,0,91,4,11,1,1
55,0.949185,1,0,61,2,9,1,1
55,0.736791,2,0,89,4,10,1,1
55,1.061559,1,0,24,2,12,0,2
55,0.670303,1,0,46,4,12,2,2
55,0.645371,1,0,19,2,11,1,1
55,0.597978,1,0,127,3,4,2,2
55,0.751885,1,0,122,3,4,1,1
55,0.700151,1,0,144,4,3,3,2
55,0.581395,2,0,117,2,1,3,2
55,0.712661,2,0,2,1,9,0,2
55,0.557889,2,0,56,1,11,1,1
55,0.61869,2,0,66,2,10,1,1
55,0.621298,2,0,112,2,1,2,2
55,0.61348,2,0,22,2,12,1,1
55,0.879146,1,0,52,1,10,1,1
55,1.357697,1,0,26,3,9,2,2
55,0.666368,1,0,111,2,1,1,1
55,0.657725,2,0,136,4,3,3,2
55,0.64212,2,0,118,2,1,2,2
55,0.586251,1,0,110,2,1,1,1
55,0.844457,1,0,137,4,3,2,2
55,0.590082,2,0,36,3,12,2,2
55,0.752808,2,0,115,2,1,1,1
55,0.532343,1,0,33,3,11,0,2
55,0.530128,2,0,71,2,12,1,1
55,1.175476,1,0,29,3,10,1,1
55,0.859215,2,0,114,2,1,3,2
55,1.371409,2,0,104,1,2,2,2
55,0.590716,1,0,15,2,9,1,1
55,0.569379,1,0,69,2,11,1,1
55,0.508432,1,0,63,2,9,1,1
55,0.529949,1,0,84,3,12,1,1
55,0.455754,1,0,12,1,12,1,1
55,0.935344,2,0,70,2,12,1,1
55,1.105891,2,0,123,3,4,2,2
55,0.631725,1,0,83,3,12,1,1
55,0.737554,2,0,72,2,12,1,1
55,0.830385,1,0,31,3,11,3,2
55,0.702931,1,0,90,4,10,1,1
55,0.621823,2,0,125,3,4,2,2
55,0.8321,1,0,98,1,2,3,2
55,0.969195,1,0,80,3,11,1,1
55,1.572088,2,0,79,3,11,1,1
55,0.672172,2,0,53,1,10,1,1
55,1.152004,2,0,54,1,10,1,1
55,0.708107,1,0,37,4,9,0,2
55,0.851582,2,0,27,3,9,0,2
55,0.979739,2,0,40,4,10,2,2
55,0.710085,2,0,44,4,11,0,2
55,1.108573,1,0,23,2,12,0,2
55,0.763372,2,0,6,1,10,1,1
55,0.742568,2,0,107,1,2,1,1
55,0.932316,1,0,42,4,10,3,2
55,0.63319,2,0,133,4,3,2,2
55,1.476679,1,0,84,3,12,1,1
55,0.715597,2,0,66,2,10,1,1
55,0.621634,1,0,120,2,1,3,2
55,0.614858,1,0,130,3,4,2,2
55,0.816785,2,0,73,3,9,1,1
55,0.651395,1,0,122,3,4,1,1
55,0.595116,1,0,42,4,10,3,2
55,0.796215,1,0,24,2,12,0,2
55,0.655731,1,0,9,1,11,0,2
55,0.488658,2,0,18,2,10,1,1
55,1.375206,2,0,17,2,10,0,2
55,1.002757,2,0,62,2,9,1,1
55,0.517191,2,0,77,3,10,1,1
55,0.819584,2,0,8,1,11,3,2
55,0.749126,1,0,141,4,3,2,2
55,0.609359,1,0,97,1,2,2,2
55,0.667595,1,0,127,3,4,2,2
55,0.626908,2,0,129,3,4,1,1
55,0.660599,2,0,22,2,12,1,1
55,0.61236,2,0,107,1,2,1,1
55,0.63072,2,0,81,3,11,1,1
55,0.63156,1,0,99,1,2,2,2
55,0.872706,1,0,3,1,9,2,2
55,0.983989,1,0,68,2,11,1,1
55,1.203081,1,0,58,1,12,1,1
55,0.860195,2,0,2,1,9,0,2
55,0.783974,2,0,16,2,10,2,2
55,0.435425,1,0,139,4,3,1,1
55,1.035755,1,0,128,3,4,3,2
55,1.244311,1,0,67,2,11,1,1
55,0.756001,2,0,5,1,10,0,2
55,0.912621,1,0,142,4,3,3,2
55,0.638857,2,0,143,4,3,1,1
55,0.551723,1,0,111,2,1,1,1
55,0.892327,2,0,108,1,2,3,2
55,0.771696,1,0,98,1,2,3,2
55,0.719662,1,0,93,4,11,1,1
55,0.532358,1,0,38,4,9,3,2
55,0.457015,1,0,49,1,9,1,1
55,1.288954,2,0,51,1,9,1,1
55,0.79146,1,0,82,3,12,1,1
55,0.754738,1,0,137,4,3,2,2
55,0.655317,2,0,45,4,11,1,1
55,0.695108,2,0,133,4,3,2,2
55,0.548688,1,0,105,1,2,3,2
55,1.000712,1,0,31,3,11,3,2
55,0.676102,1,0,21,2,11,2,2
55,0.594784,2,0,135,4,3,1,1
55,0.805717,1,0,48,4,12,1,1
55,0.671118,2,0,140,4,3,3,2
55,0.647146,2,0,95,4,12,1,1
55,0.487196,1,0,76,3,10,1,1
55,0.781976,2,0,79,3,11,1,1
55,0.848405,1,0,14,2,9,3,2
55,0.569488,2,0,71,2,12,1,1
55,0.565195,1,0,101,1,2,1,1
55,1.117141,1,0,35,3,12,1,1
55,0.538453,1,0,80,3,11,1,1
55,0.640184,2,0,54,1,10,1,1
55,0.744652,1,1,43,4,11,0,2
55,0.716829,1,0,96,4,12,1,1
55,1.122895,1,0,37,4,9,0,2
55,0.608318,1,0,12,1,12,1,1
55,0.72299,1,0,110,2,1,1,1
55,0.729082,2,0,13,2,9,3,2
55,0.989863,1,0,10,1,12,1,1
55,0.735611,2,0,40,4,10,2,2
55,0.772893,1,0,63,2,9,1,1
55,0.720083,1,0,33,3,11,0,2
55,0.774219,1,0,11,1,12,0,2
55,1.217,1,0,119,2,1,2,2
55,0.93995,2,0,39,4,9,1,1
55,0.523626,2,0,125,3,4,2,2
55,1.024418,2,0,118,2,1,2,2
55,0.602451,1,0,29,3,10,1,1
55,0.684729,2,0,85,4,9,1,1
55,0.531399,1,0,19,2,11,1,1
55,0.873438,2,0,102,1,2,2,2
55,0.600813,1,0,26,3,9,2,2
55,0.787029,1,0,134,4,3,1,1
55,0.662397,2,0,70,2,12,1,1
55,0.629549,1,0,60,1,12,1,1
55,0.910127,1,0,100,1,2,1,1
55,0.524798,2,0,91,4,11,1,1
55,1.010237,2,0,94,4,12,1,1
55,0.547412,1,0,116,2,1,2,2
55,2.545472,2,0,132,3,4,3,2
55,0.500748,1,0,83,3,12,1,1
55,0.722513,2,0,106,1,2,1,1
55,0.687874,1,0,69,2,11,1,1
55,0.671782,2,0,56,1,11,1,1
55,0.578848,1,0,144,4,3,3,2
55,0.57357,2,0,113,2,1,1,1
55,2.552144,2,0,57,1,11,1,1
55,0.964858,2,0,65,2,10,1,1
55,0.767964,1,0,61,2,9,1,1
55,0.667675,1,0,15,2,9,1,1
55,1.01176,2,0,7,1,11,2,2
55,1.037047,2,0,72,2,12,1,1
55,1.206586,2,0,78,3,10,1,1
55,0.769366,1,0,4,1,10,3,2
55,0.620255,2,0,44,4,11,0,2
55,1.749525,1,0,52,1,10,1,1
55,0.77906,1,0,86,4,9,1,1
55,0.566213,1,1,115,2,1,1,1
55,0.673989,1,0,75,3,9,1,1
55,0.69669,2,0,74,3,9,1,1
55,0.703103,2,0,36,3,12,2,2
55,0.853556,1,0,124,3,4,3,2
55,0.55031,2,0,27,3,9,0,2
55,0.874651,2,0,30,3,10,0,2
55,0.705938,1,0,46,4,12,2,2
55,0.736231,1,0,23,2,12,0,2
55,0.596693,1,0,28,3,10,3,2
55,0.959895,2,0,89,4,10,1,1
55,0.75489,1,0,64,2,10,1,1
55,0.934432,2,0,25,3,9,0,2
55,0.675391,2,0,138,4,3,2,2
55,0.739231,2,0,32,3,11,1,1
55,0.848198,2,0,6,1,10,1,1
55,0.840512,1,0,109,2,1,3,2
55,0.913043,2,0,112,2,1,2,2
55,0.406243,1,0,121,3,4,1,1
55,0.703978,2,0,123,3,4,2,2
55,0.782317,2,0,92,4,11,1,1
55,0.561733,2,0,104,1,2,2,2
55,1.049079,2,0,20,2,11,0,2
55,0.761655,2,0,114,2,1,3,2
55,0.748762,2,0,50,1,9,1,1
55,0.880857,2,0,41,4,10,0,2
55,0.655847,2,0,136,4,3,3,2
55,0.592576,1,0,88,4,10,1,1
55,0.595677,2,0,131,3,4,3,2
55,0.710011,1,0,59,1,12,1,1
55,0.651792,2,0,103,1,2,3,2
55,1.260251,2,0,53,1,10,1,1
55,1.220571,2,0,34,3,12,1,1
55,0.845798,2,0,117,2,1,3,2
55,0.589668,1,0,90,4,10,1,1
55,0.608904,2,0,1,1,9,1,1
55,1.243019,2,0,126,3,4,1,1
55,0.67686,1,0,87,4,9,1,1
55,0.796801,1,0,47,4,12,1,1
55,0.582166,1,0,55,1,11,1,1
55,0.928284,2,0,8,1,11,3,2
55,1.893076,1,0,10,1,12,1,1
55,0.780145,2,0,135,4,3,1,1
55,0.638466,1,0,68,2,11,1,1
55,1.472063,1,0,87,4,9,1,1
55,0.911914,1,0,111,2,1,1,1
55,0.749387,1,0,142,4,3,3,2
55,0.617858,1,0,90,4,10,1,1
55,0.65122,2,0,104,1,2,2,2
55,0.563924,2,0,17,2,10,0,2
55,0.84748,1,0,88,4,10,1,1
55,1.307901,2,0,114,2,1,3,2
55,0.633691,1,0,38,4,9,3,2
55,1.01117,1,0,49,1,9,1,1
55,0.57294,1,0,101,1,2,1,1
55,0.632278,2,0,89,4,10,1,1
55,0.746009,1,0,110,2,1,1,1
55,0.908842,2,0,102,1,2,2,2
55,0.715188,1,0,137,4,3,2,2
55,0.712804,1,0,19,2,11,1,1
55,0.957414,1,0,58,1,12,1,1
55,0.578663,1,0,21,2,11,2,2
55,0.6542,2,0,66,2,10,1,1
55,0.766175,1,0,80,3,11,1,1
55,0.690239,1,0,14,2,9,3,2
55,0.976974,2,0,40,4,10,2,2
55,0.499873,2,0,95,4,12,1,1
55,0.594636,1,0,47,4,12,1,1
55,0.716953,2,0,108,1,2,3,2
55,0.706981,1,0,24,2,12,0,2
55,0.672752,2,0,62,2,9,1,1
55,0.912897,1,1,123,3,4,2,2
55,0.614065,1,0,97,1,2,2,2
55,0.735595,2,1,42,4,10,3,2
55,1.060573,2,1,144,4,3,3,2
55,0.908061,1,0,98,1,2,3,2
55,1.194288,2,0,133,4,3,2,2
55,0.665765,1,0,139,4,3,1,1
55,0.76947,2,0,125,3,4,2,2
55,2.100957,1,0,83,3,12,1,1
55,0.651356,1,0,76,3,10,1,1
55,0.596394,1,0,9,1,11,0,2
55,0.573509,1,0,52,1,10,1,1
55,0.681104,2,0,115,2,1,1,1
55,0.663725,1,0,23,2,12,0,2
55,0.703742,2,0,72,2,12,1,1
55,0.709208,2,0,45,4,11,1,1
55,1.26704,2,0,140,4,3,3,2
55,0.56363,2,0,126,3,4,1,1
55,0.798596,2,0,41,4,10,0,2
55,0.640728,1,0,93,4,11,1,1
55,0.697302,2,0,103,1,2,3,2
55,1.455239,2,0,138,4,3,2,2
55,2.567613,1,0,15,2,9,1,1
55,1.08342,2,0,92,4,11,1,1
55,0.665411,2,0,18,2,10,1,1
55,1.064615,1,0,100,1,2,1,1
55,0.625299,2,0,71,2,12,1,1
55,0.617992,1,0,29,3,10,1,1
55,3.16428,1,0,130,3,4,2,2
55,0.983783,2,0,5,1,10,0,2
55,0.563267,1,0,11,1,12,0,2
55,0.678572,2,0,27,3,9,0,2
55,1.413369,2,0,6,1,10,1,1
55,0.639712,1,0,26,3,9,2,2
55,0.688803,2,0,56,1,11,1,1
55,0.60629,1,0,61,2,9,1,1
55,0.64972,1,0,59,1,12,1,1
55,0.673827,1,0,4,1,10,3,2
55,1.296383,1,1,20,2,11,0,2
55,4.631457,2,0,1,1,9,1,1
55,0.728306,2,0,77,3,10,1,1
55,1.154454,2,0,70,2,12,1,1
55,0.509315,2,0,113,2,1,1,1
55,0.58723,1,0,35,3,12,1,1
55,0.990921,2,0,79,3,11,1,1
55,2.600679,1,0,46,4,12,2,2
55,1.939854,1,0,128,3,4,3,2
55,0.880171,2,0,118,2,1,2,2
55,0.82355,1,0,28,3,10,3,2
55,1.248766,1,0,63,2,9,1,1
55,2.536328,2,0,43,4,11,0,2
55,3.381557,2,0,54,1,10,1,1
55,1.448722,2,0,117,2,1,3,2
55,0.781009,1,0,96,4,12,1,1
55,0.90278,2,0,85,4,9,1,1
55,0.733904,2,0,36,3,12,2,2
55,0.761394,2,0,30,3,10,0,2
55,1.133957,1,0,67,2,11,1,1
55,2.706126,2,0,78,3,10,1,1
55,0.96994,1,0,99,1,2,2,2
55,0.701158,1,0,75,3,9,1,1
55,0.643551,1,0,48,4,12,1,1
55,3.292158,2,1,121,3,4,1,1
55,4.739245,2,0,81,3,11,1,1
55,3.327924,2,0,129,3,4,1,1
55,1.612972,1,0,109,2,1,3,2
55,18.358811,1,0,120,2,1,3,2
55,3.033352,2,0,73,3,9,1,1
55,0.922658,2,0,34,3,12,1,1
55,3.608668,2,0,132,3,4,3,2
55,1.17126,2,0,94,4,12,1,1
55,0.966908,2,0,51,1,9,1,1
55,1.394489,2,0,65,2,10,1,1
55,1.405386,2,0,7,1,11,2,2
55,0.775573,2,0,57,1,11,1,1
55,15.600008,1,0,86,4,9,1,1
55,1.537417,2,0,44,4,11,0,2
55,5.030724,1,0,127,3,4,2,2
55,1.647401,1,0,116,2,1,2,2
55,1.743344,2,0,91,4,11,1,1
55,1.091644,2,0,136,4,3,3,2
55,7.562804,2,0,74,3,9,1,1
55,1.118556,2,0,25,3,9,0,2
55,1.123662,2,0,50,1,9,1,1
55,1.305815,1,0,82,3,12,1,1
55,2.335807,2,0,39,4,9,1,1
55,4.364136,2,0,32,3,11,1,1
55,0.680258,2,0,112,2,1,2,2
55,0.55227,2,0,131,3,4,3,2
55,1.043635,1,0,124,3,4,3,2
55,0.716059,2,0,22,2,12,1,1
55,1.53001,1,0,122,3,4,1,1
55,0.71777,2,0,53,1,10,1,1
55,1.163201,1,0,3,1,9,2,2
55,0.662778,1,0,69,2,11,1,1
55,4.029982,1,0,37,4,9,0,2
55,0.927276,1,0,105,1,2,3,2
55,0.668693,2,0,13,2,9,3,2
55,0.715956,2,0,143,4,3,1,1
55,1.097764,1,0,64,2,10,1,1
55,2.183615,1,0,84,3,12,1,1
55,0.650436,1,0,134,4,3,1,1
55,0.850656,2,0,16,2,10,2,2
55,0.878625,1,0,31,3,11,3,2
55,0.932449,2,0,2,1,9,0,2
55,0.842284,1,0,60,1,12,1,1
55,0.819022,1,0,141,4,3,2,2
55,1.347642,1,0,12,1,12,1,1
55,0.968926,1,0,33,3,11,0,2
55,0.660698,1,0,55,1,11,1,1
55,1.756171,1,0,119,2,1,2,2
55,0.576507,2,0,107,1,2,1,1
55,0.715807,2,0,106,1,2,1,1
56,1.023065,1,0,22,2,12,2,2
56,0.672764,2,0,58,1,12,1,1
56,0.592884,2,0,7,1,11,1,1
56,0.811928,2,0,75,3,9,1,1
56,0.782353,1,0,83,3,12,1,1
56,0.633572,1,0,126,3,4,1,1
56,0.682967,1,0,32,3,11,2,2
56,0.674106,1,0,97,1,2,1,1
56,0.521701,2,0,8,1,11,1,1
56,0.607654,1,0,67,2,11,1,1
56,0.594433,2,0,77,3,10,1,1
56,0.661987,2,0,87,4,9,1,1
56,0.605664,1,0,78,3,10,1,1
56,1.09608,2,0,28,3,10,1,1
56,0.639999,2,0,98,1,2,2,2
56,0.593347,1,0,57,1,11,1,1
56,0.539979,1,0,110,2,1,1,1
56,0.681621,2,0,93,4,11,1,1
56,0.737017,2,0,50,1,9,1,1
56,0.606133,1,0,10,1,12,1,1
56,0.5928,1,0,18,2,10,0,2
56,0.635857,2,0,54,1,10,1,1
56,0.61342,1,0,65,2,10,1,1
56,0.543113,1,0,27,3,9,0,2
56,0.716636,1,0,89,4,10,1,1
56,0.594315,2,0,138,4,3,1,1
56,0.60551,1,0,4,1,10,0,2
56,0.640517,2,0,106,1,2,3,2
56,0.746031,1,0,35,3,12,2,2
56,0.638394,1,0,76,3,10,1,1
56,0.599548,2,0,119,2,1,1,1
56,0.602051,2,0,17,2,10,1,1
56,0.540113,2,0,46,4,12,1,1
56,0.601633,1,0,136,4,3,3,2
56,0.548489,2,0,120,2,1,2,2
56,0.641112,1,0,48,4,12,3,2
56,0.818239,1,0,38,4,9,1,1
56,0.75709,2,1,133,4,3,2,2
56,0.801354,2,0,59,1,12,1,1
56,0.659928,2,0,109,2,1,1,1
56,0.676398,2,0,31,3,11,0,2
56,0.844545,2,0,66,2,10,1,1
56,0.493931,1,0,33,3,11,1,1
56,0.725151,2,0,142,4,3,2,2
56,0.810337,1,0,128,3,4,2,2
56,0.893859,2,0,21,2,11,0,2
56,0.668788,2,0,68,2,11,1,1
56,1.268803,2,0,99,1,2,1,1
56,0.564547,2,0,41,4,10,1,1
56,0.536559,1,0,85,4,9,1,1
56,1.221603,1,0,88,4,10,1,1
56,0.767903,2,0,132,3,4,3,2
56,1.060221,1,0,45,4,11,2,2
56,0.772763,1,0,130,3,4,2,2
56,0.664897,2,0,30,3,10,0,2
56,0.456613,2,0,73,3,9,1,1
56,0.617005,2,0,141,4,3,3,2
56,0.498613,1,0,122,3,4,1,1
56,0.681866,2,0,108,1,2,2,2
56,0.921067,2,0,23,2,12,3,2
56,0.526932,1,0,70,2,12,1,1
56,1.060673,2,0,74,3,9,1,1
56,0.565412,2,0,51,1,9,1,1
56,0.649202,1,0,116,2,1,2,2
56,0.4339,1,0,11,1,12,1,1
56,0.467346,1,0,79,3,11,1,1
56,0.707553,1,1,24,2,12,0,2
56,0.457907,1,0,42,4,10,1,1
56,0.482235,1,0,143,4,3,1,1
56,0.658069,1,0,117,2,1,3,2
56,0.977716,1,0,139,4,3,2,2
56,0.686721,2,0,2,1,9,3,2
56,0.606686,1,0,12,1,12,2,2
56,0.513942,1,0,114,2,1,1,1
56,0.575247,1,0,103,1,2,3,2
56,0.595679,2,0,113,2,1,2,2
56,0.606336,2,0,37,4,9,0,2
56,0.664921,1,0,125,3,4,3,2
56,0.480804,1,0,69,2,11,1,1
56,0.407172,1,0,84,3,12,1,1
56,0.451031,2,0,81,3,11,1,1
56,0.499175,1,0,55,1,11,1,1
56,0.617671,2,0,90,4,10,1,1
56,0.500179,2,0,25,3,9,1,1
56,0.530164,1,0,53,1,10,1,1
56,0.496071,2,0,102,1,2,1,1
56,0.621434,2,0,52,1,10,1,1
56,0.464677,2,0,95,4,12,1,1
56,0.520134,1,0,101,1,2,1,1
56,0.605622,1,0,121,3,4,2,2
56,0.888697,2,0,134,4,3,3,2
56,0.591998,1,0,6,1,10,0,2
56,0.603156,2,0,19,2,11,1,1
56,0.566349,2,0,71,2,12,1,1
56,0.561855,2,0,112,2,1,3,2
56,0.677737,1,0,104,1,2,2,2
56,0.445767,1,0,13,2,9,1,1
56,0.527052,2,0,47,4,12,0,2
56,0.484995,1,0,49,1,9,1,1
56,0.88397,1,0,26,3,9,3,2
56,0.60392,2,0,100,1,2,2,2
56,0.974298,2,0,111,2,1,2,2
56,0.658017,2,0,144,4,3,3,2
56,0.474985,1,0,80,3,11,1,1
56,0.634261,1,0,118,2,1,3,2
56,0.483909,1,0,3,1,9,3,2
56,0.46707,2,0,96,4,12,1,1
56,0.658406,2,0,124,3,4,3,2
56,0.716332,2,0,82,3,12,1,1
56,0.425921,1,0,64,2,10,1,1
56,0.395366,2,0,92,4,11,1,1
56,0.574166,2,0,61,2,9,1,1
56,0.602192,1,0,107,1,2,3,2
56,0.46949,2,0,43,4,11,3,2
56,0.620982,2,0,63,2,9,1,1
56,0.382696,2,0,39,4,9,0,2
56,0.570541,2,0,20,2,11,2,2
56,0.750543,1,0,29,3,10,1,1
56,0.474811,2,0,34,3,12,0,2
56,0.586657,1,0,15,2,9,1,1
56,0.646374,1,0,16,2,10,3,2
56,0.454917,2,0,36,3,12,3,2
56,0.687565,2,0,129,3,4,3,2
56,0.654969,1,0,86,4,9,1,1
56,0.671261,1,0,140,4,3,2,2
56,0.679125,1,0,40,4,10,2,2
56,0.670938,2,0,72,2,12,1,1
56,0.503261,1,0,14,2,9,0,2
56,0.55692,1,0,44,4,11,0,2
56,0.466683,2,1,105,1,2,3,2
56,0.609883,2,0,131,3,4,1,1
56,0.724915,1,0,115,2,1,3,2
56,0.611137,2,0,1,1,9,2,2
56,0.781348,2,0,127,3,4,2,2
56,0.577088,1,0,60,1,12,1,1
56,0.540508,1,0,137,4,3,1,1
56,0.537767,1,0,91,4,11,1,1
56,0.622275,1,0,94,4,12,1,1
56,1.296718,2,0,9,1,11,0,2
56,0.622954,2,0,135,4,3,1,1
56,0.58476,2,0,123,3,4,1,1
56,0.612423,2,0,5,1,10,0,2
56,0.56634,1,0,56,1,11,1,1
56,0.521977,1,0,62,2,9,1,1
56,0.623899,1,0,10,1,12,1,1
56,0.497575,2,0,52,1,10,1,1
56,0.448707,1,0,62,2,9,1,1
56,0.552621,2,0,24,2,12,0,2
56,0.525456,2,0,120,2,1,2,2
56,0.404406,2,0,21,2,11,0,2
56,0.622393,2,0,96,4,12,1,1
56,0.44784,1,0,91,4,11,1,1
56,0.552279,1,0,105,1,2,3,2
56,0.429616,1,0,55,1,11,1,1
56,0.439427,2,0,54,1,10,1,1
56,0.496717,1,0,130,3,4,2,2
56,0.535196,1,0,110,2,1,1,1
56,0.452585,2,0,68,2,11,1,1
56,0.645113,2,0,119,2,1,1,1
56,0.581823,1,0,14,2,9,0,2
56,0.488937,2,0,109,2,1,1,1
56,0.423961,2,0,74,3,9,1,1
56,0.506245,1,0,143,4,3,1,1
56,0.64092,1,0,16,2,10,3,2
56,0.514289,1,0,27,3,9,0,2
56,0.520173,2,0,25,3,9,1,1
56,0.557859,2,0,37,4,9,0,2
56,0.626393,1,0,139,4,3,2,2
56,0.444663,1,0,86,4,9,1,1
56,0.565626,1,0,128,3,4,2,2
56,0.609542,1,0,26,3,9,3,2
56,0.55627,2,0,113,2,1,2,2
56,0.473187,1,0,76,3,10,1,1
56,0.609382,2,0,50,1,9,1,1
56,0.619782,2,0,58,1,12,1,1
56,0.877806,1,0,35,3,12,2,2
56,1.157522,1,0,13,2,9,1,1
56,0.529916,1,0,15,2,9,1,1
56,0.527183,1,0,18,2,10,0,2
56,0.661095,2,0,72,2,12,1,1
56,0.509643,1,0,136,4,3,3,2
56,0.612595,1,0,53,1,10,1,1
56,0.574363,2,0,51,1,9,1,1
56,0.50645,2,0,28,3,10,1,1
56,0.697438,1,0,45,4,11,2,2
56,0.511597,2,0,39,4,9,0,2
56,0.56639,2,0,112,2,1,3,2
56,0.498066,2,0,81,3,11,1,1
56,0.60915,1,0,4,1,10,0,2
56,0.731031,2,0,2,1,9,3,2
56,0.456341,2,0,144,4,3,3,2
56,0.424629,2,1,42,4,10,1,1
56,0.858552,1,0,117,2,1,3,2
56,0.739578,2,0,5,1,10,0,2
56,0.504394,2,0,17,2,10,1,1
56,0.535499,2,0,8,1,11,1,1
56,0.620067,1,1,20,2,11,2,2
56,0.605969,1,0,126,3,4,1,1
56,0.553247,1,0,40,4,10,2,2
56,0.957652,1,0,137,4,3,1,1
56,0.690184,2,0,23,2,12,3,2
56,0.609989,1,0,85,4,9,1,1
56,0.756463,1,0,125,3,4,3,2
56,0.593267,1,0,48,4,12,3,2
56,0.676581,1,0,101,1,2,1,1
56,0.507559,1,0,122,3,4,1,1
56,0.609969,1,0,6,1,10,0,2
56,0.644056,2,0,127,3,4,2,2
56,0.630013,2,0,138,4,3,1,1
56,0.575608,1,0,115,2,1,3,2
56,0.65105,2,0,71,2,12,1,1
56,0.603575,2,0,36,3,12,3,2
56,0.510618,1,0,121,3,4,2,2
56,0.589202,2,0,135,4,3,1,1
56,0.696072,1,0,104,1,2,2,2
56,0.574234,2,0,7,1,11,1,1
56,0.572027,1,0,80,3,11,1,1
56,0.808504,1,0,3,1,9,3,2
56,0.554655,2,0,63,2,9,1,1
56,0.487913,2,0,92,4,11,1,1
56,0.503049,1,1,90,4,10,1,1
56,0.469353,2,0,98,1,2,2,2
56,0.501272,1,0,70,2,12,1,1
56,0.508082,2,0,129,3,4,3,2
56,0.507023,2,0,75,3,9,1,1
56,0.768893,1,0,94,4,12,1,1
56,0.492914,2,0,102,1,2,1,1
56,0.58022,1,0,97,1,2,1,1
56,0.751965,2,0,77,3,10,1,1
56,0.548614,2,0,19,2,11,1,1
56,0.560778,1,0,56,1,11,1,1
56,0.541806,1,0,69,2,11,1,1
56,0.554412,2,0,131,3,4,1,1
56,0.575469,2,0,87,4,9,1,1
56,0.675731,1,0,116,2,1,2,2
56,0.475504,2,0,99,1,2,1,1
56,0.435793,2,0,93,4,11,1,1
56,0.476901,1,0,33,3,11,1,1
56,0.59609,1,0,12,1,12,2,2
56,0.607077,1,0,140,4,3,2,2
56,0.60219,1,0,133,4,3,2,2
56,0.48477,1,0,64,2,10,1,1
56,0.587573,2,0,142,4,3,2,2
56,0.50318,1,0,118,2,1,3,2
56,0.701365,2,0,9,1,11,0,2
56,0.483531,1,0,29,3,10,1,1
56,0.699137,2,0,108,1,2,2,2
56,0.626107,2,0,82,3,12,1,1
56,0.859624,1,0,107,1,2,3,2
56,0.508619,2,0,73,3,9,1,1
56,0.443389,2,0,123,3,4,1,1
56,0.755227,1,0,11,1,12,1,1
56,0.55208,2,0,59,1,12,1,1
56,0.613318,2,0,61,2,9,1,1
56,0.598725,2,0,66,2,10,1,1
56,0.594018,1,0,83,3,12,1,1
56,0.653401,1,0,57,1,11,1,1
56,0.614015,2,0,41,4,10,1,1
56,0.559555,2,0,31,3,11,0,2
56,0.652592,1,0,114,2,1,1,1
56,0.700923,2,0,30,3,10,0,2
56,0.61977,2,0,100,1,2,2,2
56,0.6933,2,0,134,4,3,3,2
56,0.644124,2,0,132,3,4,3,2
56,0.702192,2,1,65,2,10,1,1
56,0.604076,2,0,106,1,2,3,2
56,0.551348,1,0,78,3,10,1,1
56,0.652028,2,0,141,4,3,3,2
56,0.819866,1,0,38,4,9,1,1
56,0.72625,1,0,44,4,11,0,2
56,0.57209,1,0,60,1,12,1,1
56,0.76051,1,0,22,2,12,2,2
56,0.740533,1,0,67,2,11,1,1
56,0.705747,2,0,111,2,1,2,2
56,0.704395,2,0,1,1,9,2,2
56,0.678881,2,0,95,4,12,1,1
56,0.542576,2,0,43,4,11,3,2
56,0.651383,1,0,103,1,2,3,2
56,0.604387,1,0,49,1,9,1,1
56,0.814159,2,0,46,4,12,1,1
56,0.856984,1,0,89,4,10,1,1
56,0.640907,2,0,47,4,12,0,2
56,0.682201,2,0,124,3,4,3,2
56,0.577509,1,0,79,3,11,1,1
56,0.541057,1,0,84,3,12,1,1
56,1.010016,1,0,88,4,10,1,1
56,0.91611,2,0,34,3,12,0,2
56,0.610009,1,0,32,3,11,2,2
56,0.952323,1,0,139,4,3,2,2
56,0.765875,1,0,118,2,1,3,2
56,0.785643,1,0,35,3,12,2,2
56,0.532397,2,0,108,1,2,2,2
56,0.713899,2,0,132,3,4,3,2
56,0.551778,2,0,51,1,9,1,1
56,0.57998,2,0,47,4,12,0,2
56,0.447802,2,0,34,3,12,0,2
56,0.512904,2,0,134,4,3,3,2
56,0.574829,1,0,104,1,2,2,2
56,0.537866,1,0,38,4,9,1,1
56,0.559736,2,0,46,4,12,1,1
56,0.596797,1,0,45,4,11,2,2
56,0.486482,1,0,42,4,10,1,1
56,0.534335,1,0,80,3,11,1,1
56,0.571202,1,0,16,2,10,3,2
56,0.727857,2,0,36,3,12,3,2
56,0.605354,2,0,144,4,3,3,2
56,0.496085,2,0,74,3,9,1,1
56,0.694976,1,0,3,1,9,3,2
56,0.605208,2,0,106,1,2,3,2
56,0.584496,2,0,71,2,12,1,1
56,1.052215,1,0,48,4,12,3,2
56,0.532205,2,0,129,3,4,3,2
56,0.689419,1,0,26,3,9,3,2
56,0.45661,1,0,15,2,9,1,1
56,0.617646,1,0,62,2,9,1,1
56,0.451407,1,0,91,4,11,1,1
56,0.755906,1,0,125,3,4,3,2
56,0.425093,1,0,101,1,2,1,1
56,0.674889,2,0,25,3,9,1,1
56,0.56324,1,0,11,1,12,1,1
56,0.775008,2,0,50,1,9,1,1
56,0.602564,1,0,40,4,10,2,2
56,0.789042,1,0,103,1,2,3,2
56,0.568746,1,0,44,4,11,0,2
56,0.524787,1,0,85,4,9,1,1
56,0.682888,2,0,9,1,11,0,2
56,0.834067,1,0,27,3,9,0,2
56,0.555619,1,0,6,1,10,0,2
56,0.832172,2,0,66,2,10,1,1
56,0.785501,2,0,39,4,9,0,2
56,0.572656,2,0,127,3,4,2,2
56,0.52806,1,0,78,3,10,1,1
56,0.573622,1,1,59,1,12,1,1
56,0.969814,2,0,5,1,10,0,2
56,0.749319,1,0,4,1,10,0,2
56,0.666327,2,0,30,3,10,0,2
56,0.482296,1,0,88,4,10,1,1
56,0.713196,2,0,24,2,12,0,2
56,0.527067,1,0,89,4,10,1,1
56,0.780907,2,0,120,2,1,2,2
56,0.616981,1,0,126,3,4,1,1
56,0.546438,1,0,137,4,3,1,1
56,0.454982,2,0,58,1,12,1,1
56,0.870427,2,0,141,4,3,3,2
56,0.526901,2,0,99,1,2,1,1
56,0.468463,2,0,131,3,4,1,1
56,0.676957,1,0,18,2,10,0,2
56,0.517151,2,0,77,3,10,1,1
56,0.602817,2,0,112,2,1,3,2
56,0.573636,1,0,105,1,2,3,2
56,0.641601,2,0,98,1,2,2,2
56,0.618951,2,0,119,2,1,1,1
56,0.501021,2,0,90,4,10,1,1
56,0.635705,1,0,13,2,9,1,1
56,0.596577,2,0,37,4,9,0,2
56,0.447341,2,0,17,2,10,1,1
56,0.447805,2,0,28,3,10,1,1
56,0.520684,1,0,140,4,3,2,2
56,0.661543,1,0,117,2,1,3,2
56,0.437992,1,0,60,1,12,1,1
56,0.638124,2,0,31,3,11,0,2
56,0.599283,2,0,124,3,4,3,2
56,0.466405,1,0,76,3,10,1,1
56,0.72224,1,0,136,4,3,3,2
56,0.503835,2,0,96,4,12,1,1
56,0.430301,1,0,33,3,11,1,1
56,0.543122,2,0,73,3,9,1,1
56,0.540866,1,0,32,3,11,2,2
56,0.546282,2,0,135,4,3,1,1
56,0.447092,2,0,21,2,11,0,2
56,0.503377,1,0,49,1,9,1,1
56,0.446266,2,0,102,1,2,1,1
56,0.494366,2,0,8,1,11,1,1
56,0.365257,2,0,109,2,1,1,1
56,0.545522,2,1,94,4,12,1,1
56,0.525692,1,0,86,4,9,1,1
56,0.539845,1,0,84,3,12,1,1
56,0.473214,1,0,83,3,12,1,1
56,0.505452,2,0,54,1,10,1,1
56,0.727818,1,0,115,2,1,3,2
56,0.462172,1,0,69,2,11,1,1
56,0.501569,1,0,65,2,10,1,1
56,0.595934,2,0,100,1,2,2,2
56,0.479445,1,0,79,3,11,1,1
56,0.43884,1,0,53,1,10,1,1
56,0.543853,2,0,82,3,12,1,1
56,0.557345,1,0,12,1,12,2,2
56,0.433674,2,1,114,2,1,1,1
56,0.57022,1,0,110,2,1,1,1
56,0.830557,1,0,122,3,4,1,1
56,0.5845,2,0,52,1,10,1,1
56,0.931602,2,0,113,2,1,2,2
56,0.688777,2,0,95,4,12,1,1
56,0.591807,2,0,1,1,9,2,2
56,0.475704,1,0,121,3,4,2,2
56,0.739401,1,0,128,3,4,2,2
56,0.600889,2,0,2,1,9,3,2
56,0.819146,2,0,20,2,11,2,2
56,0.556824,1,0,70,2,12,1,1
56,0.785039,2,0,41,4,10,1,1
56,0.492486,1,0,57,1,11,1,1
56,0.659182,1,0,107,1,2,3,2
56,0.508194,2,0,123,3,4,1,1
56,0.49908,1,0,56,1,11,1,1
56,0.481367,2,1,143,4,3,1,1
56,0.528649,2,0,138,4,3,1,1
56,0.478148,1,0,97,1,2,1,1
56,0.525886,2,0,63,2,9,1,1
56,0.659237,2,0,87,4,9,1,1
56,0.564898,2,0,81,3,11,1,1
56,0.824842,2,0,111,2,1,2,2
56,0.81882,1,0,14,2,9,0,2
56,0.868412,1,0,116,2,1,2,2
56,0.484837,1,0,67,2,11,1,1
56,0.779417,1,1,7,1,11,1,1
56,0.983387,2,0,43,4,11,3,2
56,0.56995,2,0,92,4,11,1,1
56,0.75808,1,0,55,1,11,1,1
56,0.731344,2,0,61,2,9,1,1
56,0.815531,2,0,23,2,12,3,2
56,1.426519,1,0,10,1,12,1,1
56,0.739746,2,0,142,4,3,2,2
56,0.481175,2,0,72,2,12,1,1
56,0.632745,2,0,19,2,11,1,1
56,0.553932,2,0,68,2,11,1,1
56,0.486442,2,0,93,4,11,1,1
56,0.838173,1,0,133,4,3,2,2
56,0.526485,2,0,75,3,9,1,1
56,0.869378,1,0,22,2,12,2,2
56,0.581245,1,0,64,2,10,1,1
56,0.463889,1,0,29,3,10,1,1
56,0.720349,1,0,130,3,4,2,2
56,0.595607,2,0,46,4,12,1,1
56,0.638458,2,0,111,2,1,2,2
56,0.727552,1,0,45,4,11,2,2
56,0.493116,2,0,25,3,9,1,1
56,0.46861,2,0,109,2,1,1,1
56,0.724425,2,0,30,3,10,0,2
56,0.63431,2,0,87,4,9,1,1
56,0.530983,1,0,11,1,12,1,1
56,0.512827,2,0,142,4,3,2,2
56,0.51048,2,0,138,4,3,1,1
56,0.573351,2,0,68,2,11,1,1
56,0.585144,2,0,23,2,12,3,2
56,0.771952,2,0,36,3,12,3,2
56,0.576119,2,0,132,3,4,3,2
56,0.73236,1,0,115,2,1,3,2
56,0.609762,2,0,63,2,9,1,1
56,0.516061,1,0,126,3,4,1,1
56,0.52996,2,0,77,3,10,1,1
56,0.807413,1,0,107,1,2,3,2
56,0.50561,1,0,12,1,12,2,2
56,0.544591,2,0,50,1,9,1,1
56,0.574157,2,0,82,3,12,1,1
56,0.497557,2,0,119,2,1,1,1
56,0.624357,1,0,103,1,2,3,2
56,0.545568,2,0,41,4,10,1,1
56,0.598742,2,0,120,2,1,2,2
56,0.529446,1,0,14,2,9,0,2
56,0.502949,1,0,110,2,1,1,1
56,0.533591,2,0,74,3,9,1,1
56,0.659011,1,0,62,2,9,1,1
56,1.027312,1,0,128,3,4,2,2
56,0.724074,1,0,117,2,1,3,2
56,0.666162,1,0,118,2,1,3,2
56,0.569784,1,0,94,4,12,1,1
56,0.589931,1,0,130,3,4,2,2
56,0.473069,1,1,28,3,10,1,1
56,0.840984,1,0,65,2,10,1,1
56,0.529782,1,0,38,4,9,1,1
56,0.630914,1,0,26,3,9,3,2
56,0.703506,2,0,9,1,11,0,2
56,0.527176,2,0,37,4,9,0,2
56,0.669139,2,0,61,2,9,1,1
56,0.540914,1,0,97,1,2,1,1
56,0.514456,1,0,48,4,12,3,2
56,0.68052,2,0,1,1,9,2,2
56,0.495331,2,0,131,3,4,1,1
56,0.437858,2,0,58,1,12,1,1
56,0.495026,1,0,79,3,11,1,1
56,0.558002,1,0,32,3,11,2,2
56,0.602386,1,0,80,3,11,1,1
56,0.460675,1,0,29,3,10,1,1
56,0.821463,1,0,55,1,11,1,1
56,0.59105,1,0,56,1,11,1,1
56,0.498375,1,0,15,2,9,1,1
56,0.833287,1,0,40,4,10,2,2
56,0.625746,2,0,24,2,12,0,2
56,0.547473,2,0,34,3,12,0,2
56,0.712063,1,0,76,3,10,1,1
56,0.558223,2,0,2,1,9,3,2
56,0.69878,1,0,136,4,3,3,2
56,0.633551,2,0,95,4,12,1,1
56,0.827154,2,0,51,1,9,1,1
56,0.484706,1,0,91,4,11,1,1
56,0.644367,2,0,19,2,11,1,1
56,0.484954,2,0,8,1,11,1,1
56,0.604923,1,0,69,2,11,1,1
56,0.871431,2,0,52,1,10,1,1
56,0.60735,2,0,73,3,9,1,1
56,0.473501,2,0,96,4,12,1,1
56,0.497498,1,0,84,3,12,1,1
56,0.65555,1,0,44,4,11,0,2
56,0.912238,1,0,16,2,10,3,2
56,0.744394,2,0,113,2,1,2,2
56,0.570466,1,0,10,1,12,1,1
56,0.574838,1,0,57,1,11,1,1
56,0.554798,1,0,140,4,3,2,2
56,0.407521,1,0,85,4,9,1,1
56,0.706332,1,0,139,4,3,2,2
56,0.664748,2,0,106,1,2,3,2
56,0.535848,2,0,108,1,2,2,2
56,0.517269,1,0,60,1,12,1,1
56,1.051144,1,0,133,4,3,2,2
56,0.555567,2,0,66,2,10,1,1
56,0.696502,1,0,121,3,4,2,2
56,0.702923,1,0,3,1,9,3,2
56,0.589897,2,0,123,3,4,1,1
56,0.496737,1,0,101,1,2,1,1
56,0.542702,2,0,71,2,12,1,1
56,0.483758,1,0,122,3,4,1,1
56,0.498562,2,0,7,1,11,1,1
56,0.785125,2,0,134,4,3,3,2
56,0.460802,1,0,78,3,10,1,1
56,0.884509,2,0,17,2,10,1,1
56,0.539994,2,0,54,1,10,1,1
56,0.721257,2,1,64,2,10,1,1
56,1.047276,2,0,127,3,4,2,2
56,0.623901,2,0,21,2,11,0,2
56,0.665847,2,0,135,4,3,1,1
56,0.497443,2,0,99,1,2,1,1
56,0.656425,1,0,89,4,10,1,1
56,0.584248,1,0,67,2,11,1,1
56,0.539494,1,0,49,1,9,1,1
56,0.584266,2,0,102,1,2,1,1
56,0.723282,2,0,100,1,2,2,2
56,0.809166,2,0,141,4,3,3,2
56,0.587652,1,0,6,1,10,0,2
56,0.518926,2,0,92,4,11,1,1
56,0.587754,2,0,129,3,4,3,2
56,0.903023,2,0,31,3,11,0,2
56,1.269928,2,0,124,3,4,3,2
56,1.33299,1,0,22,2,12,2,2
56,0.947386,1,0,116,2,1,2,2
56,1.078723,1,0,18,2,10,0,2
56,0.557638,1,0,143,4,3,1,1
56,0.626032,1,0,35,3,12,2,2
56,0.580675,2,0,47,4,12,0,2
56,0.61612,1,0,137,4,3,1,1
56,0.673175,2,0,5,1,10,0,2
56,1.041389,1,0,83,3,12,1,1
56,0.712468,2,0,144,4,3,3,2
56,0.846291,2,0,75,3,9,1,1
56,0.647225,2,0,93,4,11,1,1
56,0.526935,2,0,81,3,11,1,1
56,0.981389,1,0,27,3,9,0,2
56,0.568078,1,0,42,4,10,1,1
56,0.475216,2,0,39,4,9,0,2
56,0.587383,1,0,70,2,12,1,1
56,0.597508,1,0,104,1,2,2,2
56,0.88096,2,0,43,4,11,3,2
56,0.568085,2,0,90,4,10,1,1
56,0.548305,1,0,88,4,10,1,1
56,0.560785,2,0,59,1,12,1,1
56,0.541268,1,0,4,1,10,0,2
56,0.514441,1,0,114,2,1,1,1
56,0.568723,2,0,98,1,2,2,2
56,0.491302,2,0,112,2,1,3,2
56,0.498981,1,0,33,3,11,1,1
56,0.497104,2,0,72,2,12,1,1
56,0.559778,1,0,53,1,10,1,1
56,0.435503,1,0,86,4,9,1,1
56,0.629126,2,0,20,2,11,2,2
56,0.686363,1,0,105,1,2,3,2
56,0.47737,1,0,13,2,9,1,1
56,0.749397,1,0,125,3,4,3,2
57,0.75596,2,0,24,2,12,1,1
57,0.647744,1,0,10,1,12,1,1
57,0.487944,1,0,42,4,10,1,1
57,0.614804,1,0,135,4,3,2,2
57,0.497441,2,0,23,2,12,1,1
57,0.47975,2,0,118,2,1,2,2
57,0.511879,1,0,31,3,11,1,1
57,0.670009,1,0,62,2,9,3,2
57,0.413171,2,0,45,4,11,1,1
57,0.551984,1,0,138,4,3,2,2
57,0.612569,1,0,100,1,2,2,2
57,0.558424,2,0,84,3,12,0,2
57,0.482397,1,0,11,1,12,1,1
57,0.490248,1,0,123,3,4,1,1
57,0.498001,2,0,113,2,1,1,1
57,0.496212,2,0,102,1,2,3,2
57,0.526511,1,0,5,1,10,1,1
57,0.500849,2,0,29,3,10,1,1
57,0.603833,1,0,7,1,11,1,1
57,0.502474,2,0,4,1,10,1,1
57,0.636521,2,0,82,3,12,2,2
57,0.398201,2,0,108,1,2,3,2
57,0.520686,1,0,53,1,10,0,2
57,0.406311,2,0,121,3,4,3,2
57,0.43301,2,0,79,3,11,1,1
57,0.522124,1,0,19,2,11,1,1
57,0.352548,2,0,13,2,9,1,1
57,0.549408,1,0,83,3,12,2,2
57,0.498007,2,0,107,1,2,2,2
57,0.448452,2,0,143,4,3,3,2
57,0.408619,2,0,33,3,11,1,1
57,0.435411,2,0,52,1,10,1,1
57,0.556886,1,0,43,4,11,1,1
57,0.529136,1,0,61,2,9,1,1
57,0.446502,2,0,78,3,10,0,2
57,0.589965,1,0,55,1,11,1,1
57,0.681776,2,0,18,2,10,1,1
57,0.449559,2,0,144,4,3,2,2
57,0.585999,1,0,2,1,9,1,1
57,0.532718,1,0,98,1,2,2,2
57,0.465272,1,0,110,2,1,3,2
57,0.569841,2,0,3,1,9,1,1
57,0.373431,1,0,80,3,11,1,1
57,0.473516,2,0,38,4,9,1,1
57,0.464108,2,0,60,1,12,1,1
57,0.576956,2,0,47,4,12,1,1
57,0.412153,2,0,106,1,2,1,1
57,0.495079,2,0,57,1,11,0,2
57,0.533183,1,0,91,4,11,2,2
57,0.450141,2,0,6,1,10,1,1
57,0.42722,2,0,36,3,12,1,1
57,0.517605,1,0,56,1,11,0,2
57,0.435435,2,0,69,2,11,1,1
57,0.515989,1,0,17,2,10,1,1
57,0.610161,1,0,27,3,9,1,1
57,0.588349,1,0,46,4,12,1,1
57,0.464045,1,0,72,2,12,0,2
57,0.455115,1,0,71,2,12,2,2
57,0.520023,2,0,120,2,1,3,2
57,0.621535,2,0,87,4,9,0,2
57,0.703706,2,0,63,2,9,0,2
57,0.502458,1,0,105,1,2,3,2
57,0.469073,1,0,14,2,9,1,1
57,0.548945,2,0,85,4,9,0,2
57,0.537827,2,0,35,3,12,1,1
57,0.518119,1,0,137,4,3,1,1
57,0.380648,1,0,58,1,12,1,1
57,0.45585,2,0,116,2,1,3,2
57,0.42484,2,0,67,2,11,2,2
57,0.482802,1,0,70,2,12,0,2
57,0.401091,2,0,44,4,11,1,1
57,0.572016,1,0,140,4,3,3,2
57,0.437189,1,0,26,3,9,1,1
57,0.486572,1,0,50,1,9,2,2
57,0.589771,2,0,136,4,3,2,2
57,0.480948,2,0,141,4,3,1,1
57,0.432335,2,0,49,1,9,2,2
57,0.545362,1,0,51,1,9,3,2
57,0.406907,1,1,59,1,12,0,2
57,0.609062,1,0,115,2,1,2,2
57,0.515888,2,0,112,2,1,1,1
57,0.385746,2,0,20,2,11,1,1
57,0.509345,1,0,16,2,10,1,1
57,0.507118,2,0,109,2,1,2,2
57,0.410287,2,0,39,4,9,1,1
57,0.525405,1,0,81,3,11,1,1
57,0.562393,2,0,125,3,4,1,1
57,0.566949,2,0,124,3,4,2,2
57,0.442248,1,0,30,3,10,1,1
57,0.459956,2,0,68,2,11,1,1
57,0.445072,1,0,97,1,2,1,1
57,0.469386,1,0,139,4,3,1,1
57,0.557152,1,0,88,4,10,3,2
57,0.482184,2,0,77,3,10,0,2
57,0.505162,1,0,96,4,12,1,1
57,0.39897,2,0,48,4,12,1,1
57,0.442886,2,0,94,4,12,2,2
57,0.507141,1,0,119,2,1,1,1
57,0.369593,2,0,8,1,11,1,1
57,0.605942,2,0,89,4,10,0,2
57,0.560551,1,0,37,4,9,1,1
57,0.428059,1,0,93,4,11,1,1
57,0.414615,1,0,41,4,10,1,1
57,0.383519,2,0,131,3,4,2,2
57,0.459519,1,0,129,3,4,2,2
57,0.668115,1,0,92,4,11,3,2
57,0.459843,1,0,75,3,9,3,2
57,0.405051,1,0,126,3,4,1,1
57,0.431053,1,0,130,3,4,3,2
57,1.040932,2,0,66,2,10,0,2
57,0.505993,1,0,114,2,1,2,2
57,0.552972,1,0,74,3,9,3,2
57,0.436871,1,0,34,3,12,1,1
57,0.518829,2,0,122,3,4,1,1
57,0.516235,2,0,25,3,9,1,1
57,0.474376,2,0,12,1,12,1,1
57,0.449402,1,0,132,3,4,2,2
57,0.410702,1,0,65,2,10,1,1
57,0.532789,2,0,104,1,2,1,1
57,0.426558,1,0,28,3,10,1,1
57,0.60339,1,0,111,2,1,3,2
57,0.485983,1,0,40,4,10,1,1
57,0.5503,1,0,95,4,12,0,2
57,0.418627,1,0,21,2,11,1,1
57,0.684412,2,0,133,4,3,3,2
57,0.643938,1,0,134,4,3,3,2
57,0.549523,2,0,142,4,3,1,1
57,0.857931,1,0,117,2,1,1,1
57,0.46663,2,0,9,1,11,1,1
57,0.649745,2,0,64,2,10,3,2
57,0.578997,2,0,128,3,4,3,2
57,0.438841,1,0,101,1,2,1,1
57,0.399999,2,0,90,4,10,1,1
57,0.363242,2,0,86,4,9,1,1
57,0.471064,1,0,76,3,10,0,2
57,0.662388,2,0,99,1,2,2,2
57,0.383783,2,0,32,3,11,1,1
57,0.530909,1,0,22,2,12,1,1
57,0.38447,2,0,15,2,9,1,1
57,0.466844,1,0,1,1,9,1,1
57,0.346662,2,0,73,3,9,1,1
57,0.431632,1,0,103,1,2,3,2
57,0.673161,1,0,127,3,4,3,2
57,0.520848,2,0,54,1,10,3,2
57,0.703437,2,0,143,4,3,3,2
57,0.461594,2,0,85,4,9,0,2
57,0.526256,1,0,74,3,9,3,2
57,0.564051,1,0,37,4,9,1,1
57,0.440181,1,0,98,1,2,2,2
57,0.408523,1,0,80,3,11,1,1
57,0.419195,2,0,69,2,11,1,1
57,0.397164,2,0,38,4,9,1,1
57,0.391876,1,0,1,1,9,1,1
57,0.530434,1,0,70,2,12,0,2
57,0.416752,2,0,144,4,3,2,2
57,0.442741,2,0,23,2,12,1,1
57,0.40375,1,0,17,2,10,1,1
57,0.526374,2,0,35,3,12,1,1
57,0.524194,1,0,115,2,1,2,2
