name,rt,correct_key,error,trial,pair1,pair2,trial_types,validity
1,0.548988,1,1,37,4,9,0,2
1,1.045777,1,1,134,4,3,3,2
1,0.771233,2,1,120,2,1,3,2
1,0.603578,1,1,139,4,3,3,2
1,2.338821,2,0,39,4,9,3,2
1,1.036677,1,0,24,2,12,0,2
1,0.666951,2,0,5,1,10,0,2
1,0.574149,1,0,132,3,4,1,1
1,0.671731,1,0,44,4,11,1,1
1,0.95503,2,0,85,4,9,1,1
1,0.765128,2,0,131,3,4,1,1
1,0.589275,2,0,62,2,9,1,1
1,0.405283,1,0,11,1,12,0,2
1,0.588802,2,1,63,2,9,1,1
1,0.996976,2,1,136,4,3,2,2
1,0.612773,2,0,13,2,9,2,2
1,0.731053,1,0,16,2,10,0,2
1,0.908607,1,0,3,1,9,0,2
1,0.728049,2,1,112,2,1,1,1
1,1.162923,1,0,127,3,4,2,2
1,0.67564,2,0,61,2,9,1,1
1,0.815703,2,0,130,3,4,3,2
1,0.646787,1,0,103,1,2,2,2
1,0.924331,1,0,80,3,11,1,1
1,0.718675,1,0,75,3,9,1,1
1,0.633023,1,0,9,1,11,0,2
1,0.783395,1,0,55,1,11,1,1
1,0.998365,2,1,34,3,12,2,2
1,0.678394,1,0,91,4,11,1,1
1,0.739453,1,0,101,1,2,3,2
1,0.70042,2,0,100,1,2,2,2
1,0.679976,2,0,10,1,12,2,2
1,0.771845,2,0,25,3,9,1,1
1,1.172935,1,0,49,1,9,1,1
1,0.821172,2,0,40,4,10,1,1
1,0.787974,1,0,47,4,12,1,1
1,0.780117,1,0,129,3,4,2,2
1,0.668327,1,0,6,1,10,1,1
1,1.088996,2,0,33,3,11,2,2
1,0.747621,1,0,128,3,4,2,2
1,1.052998,2,0,78,3,10,1,1
1,0.579076,2,0,104,1,2,2,2
1,0.579777,2,0,64,2,10,1,1
1,0.475785,1,1,96,4,12,1,1
1,0.551966,1,0,15,2,9,1,1
1,0.561262,2,0,123,3,4,2,2
1,0.705659,1,0,46,4,12,2,2
1,0.541336,1,0,69,2,11,1,1
1,0.694049,2,0,93,4,11,1,1
1,0.938565,1,0,20,2,11,3,2
1,0.580302,2,0,115,2,1,3,2
1,0.620696,1,0,90,4,10,1,1
1,0.515103,1,0,97,1,2,3,2
1,0.525763,2,1,116,2,1,3,2
1,0.58441,1,0,52,1,10,1,1
1,0.752628,2,0,60,1,12,1,1
1,0.625212,2,0,102,1,2,3,2
1,0.608232,1,0,32,3,11,3,2
1,0.920108,1,0,79,3,11,1,1
1,0.841994,1,0,133,4,3,2,2
1,0.639985,2,0,118,2,1,2,2
1,0.582304,2,0,83,3,12,1,1
1,0.686453,1,1,125,3,4,3,2
1,0.938015,2,0,119,2,1,2,2
1,0.499889,2,1,42,4,10,0,2
1,0.927395,1,0,53,1,10,1,1
1,0.673595,2,0,113,2,1,1,1
1,0.758139,2,0,144,4,3,2,2
1,0.84689,1,0,66,2,10,1,1
1,0.661289,2,0,17,2,10,1,1
1,0.481714,1,1,92,4,11,1,1
1,0.949598,1,1,58,1,12,1,1
1,0.902298,2,0,21,2,11,3,2
1,0.617114,2,0,54,1,10,1,1
1,0.63998,2,0,12,1,12,3,2
1,0.573846,1,0,56,1,11,1,1
1,0.846783,1,0,141,4,3,1,1
1,0.747489,2,1,23,2,12,0,2
1,0.532586,1,1,48,4,12,0,2
1,0.550838,1,0,105,1,2,1,1
1,1.552506,2,1,135,4,3,1,1
1,1.113087,1,1,111,2,1,1,1
1,0.939806,2,0,98,1,2,1,1
1,0.597391,2,0,7,1,11,2,2
1,0.63676,2,0,71,2,12,1,1
1,0.410311,1,0,126,3,4,3,2
1,0.601951,2,1,110,2,1,3,2
1,0.689651,2,0,2,1,9,1,1
1,0.493371,1,0,8,1,11,1,1
1,0.761853,2,0,59,1,12,1,1
1,0.618869,2,0,108,1,2,2,2
1,0.657353,2,0,26,3,9,0,2
1,0.558668,2,0,41,4,10,2,2
1,0.383966,1,0,51,1,9,1,1
1,0.823559,2,1,19,2,11,1,1
1,0.694395,2,1,4,1,10,3,2
1,0.969986,2,1,122,3,4,1,1
1,0.627055,2,0,107,1,2,1,1
1,0.801919,1,1,57,1,11,1,1
1,0.809096,1,0,27,3,9,1,1
1,0.624513,2,0,94,4,12,1,1
1,1.158819,2,0,76,3,10,1,1
1,0.800417,2,0,81,3,11,1,1
1,0.807672,2,0,121,3,4,1,1
1,1.062748,1,0,43,4,11,0,2
1,0.747185,1,0,84,3,12,1,1
1,0.548455,2,0,38,4,9,1,1
1,0.63807,1,1,143,4,3,1,1
1,0.859948,2,0,73,3,9,1,1
1,1.032873,1,0,140,4,3,2,2
1,0.67113,2,0,124,3,4,3,2
1,0.587777,1,0,138,4,3,3,2
1,0.651579,2,0,68,2,11,1,1
1,0.504761,2,0,109,2,1,2,2
1,0.620375,1,0,117,2,1,1,1
1,0.626882,2,0,137,4,3,3,2
1,0.26557,1,0,36,3,12,1,1
1,0.349171,1,0,86,4,9,1,1
1,0.470336,2,0,35,3,12,0,2
1,0.25937,1,0,45,4,11,3,2
1,0.600328,1,1,1,1,9,1,1
1,0.879734,1,0,114,2,1,2,2
1,0.844296,1,0,31,3,11,0,2
1,1.025729,1,0,82,3,12,1,1
1,0.576207,1,0,28,3,10,0,2
1,0.584875,2,0,89,4,10,1,1
1,0.800957,1,1,22,2,12,2,2
1,0.647818,1,0,87,4,9,1,1
1,0.781217,2,0,142,4,3,1,1
1,0.5408,1,0,70,2,12,1,1
1,0.486272,2,0,29,3,10,1,1
1,0.458632,1,0,88,4,10,1,1
1,0.60743,1,0,67,2,11,1,1
1,0.54297,1,1,77,3,10,1,1
1,0.56865,1,0,74,3,9,1,1
1,0.369106,1,0,106,1,2,3,2
1,0.697678,1,0,65,2,10,1,1
1,0.628798,2,0,50,1,9,1,1
1,0.635954,2,0,72,2,12,1,1
1,0.505494,1,0,95,4,12,1,1
1,0.501126,1,0,99,1,2,1,1
1,1.008401,2,0,14,2,9,0,2
1,0.639558,2,0,30,3,10,3,2
1,0.437627,1,1,18,2,10,1,1
1,0.74919,2,0,60,1,12,1,1
1,0.454498,1,0,106,1,2,3,2
1,0.715801,2,0,72,2,12,1,1
1,0.63849,2,0,38,4,9,1,1
1,0.612274,1,0,4,1,10,3,2
1,0.603514,1,0,141,4,3,1,1
1,0.835201,2,0,139,4,3,3,2
1,0.496026,1,0,84,3,12,1,1
1,0.627855,1,0,55,1,11,1,1
1,0.602865,1,0,90,4,10,1,1
1,0.53769,1,0,82,3,12,1,1
1,0.603809,2,0,124,3,4,3,2
1,0.787037,2,0,119,2,1,2,2
1,0.307406,1,1,62,2,9,1,1
1,0.854506,2,1,34,3,12,2,2
1,0.63574,2,0,109,2,1,2,2
1,0.624961,2,0,83,3,12,1,1
1,1.016477,1,0,24,2,12,0,2
1,0.43896,1,0,74,3,9,1,1
1,0.620614,2,0,104,1,2,2,2
1,0.547819,1,0,44,4,11,1,1
1,0.564266,2,0,13,2,9,2,2
1,0.517606,1,0,70,2,12,1,1
1,0.471791,2,0,143,4,3,1,1
1,0.732565,1,0,97,1,2,3,2
1,0.574735,1,0,75,3,9,1,1
1,0.623427,1,1,144,4,3,2,2
1,0.933518,1,1,111,2,1,1,1
1,0.655829,1,0,46,4,12,2,2
1,0.573032,2,0,40,4,10,1,1
1,0.757728,1,0,101,1,2,3,2
1,0.783018,2,0,1,1,9,1,1
1,0.710277,1,0,110,2,1,3,2
1,0.601998,2,0,94,4,12,1,1
1,0.721896,1,0,79,3,11,1,1
1,0.564305,1,0,66,2,10,1,1
1,0.532711,1,0,99,1,2,1,1
1,0.646713,2,0,130,3,4,3,2
1,0.540171,1,0,86,4,9,1,1
1,0.589725,1,0,87,4,9,1,1
1,0.597166,2,0,85,4,9,1,1
1,0.541108,1,0,127,3,4,2,2
1,0.374801,1,0,112,2,1,1,1
1,0.527009,2,0,98,1,2,1,1
1,0.442039,1,0,11,1,12,0,2
1,0.791704,1,0,103,1,2,2,2
1,0.615664,2,0,12,1,12,3,2
1,0.277454,1,0,28,3,10,0,2
1,0.738484,1,0,122,3,4,1,1
1,0.380396,1,1,77,3,10,1,1
1,0.628603,1,0,16,2,10,0,2
1,0.513945,2,0,137,4,3,3,2
1,0.516396,1,0,91,4,11,1,1
1,0.615045,1,0,43,4,11,0,2
1,0.43727,1,0,80,3,11,1,1
1,0.443379,2,0,68,2,11,1,1
1,0.641739,2,0,107,1,2,1,1
1,0.638466,2,0,29,3,10,1,1
1,0.58028,1,1,92,4,11,1,1
1,0.620097,1,0,69,2,11,1,1
1,0.929623,1,0,138,4,3,3,2
1,0.555413,2,0,100,1,2,2,2
1,0.580239,2,0,93,4,11,1,1
1,0.691222,2,0,41,4,10,2,2
1,0.495509,1,0,15,2,9,1,1
1,0.547712,1,0,23,2,12,0,2
1,0.652186,1,0,51,1,9,1,1
1,0.616491,2,0,58,1,12,1,1
1,0.550553,1,0,9,1,11,0,2
1,0.736453,2,0,21,2,11,3,2
1,0.593804,2,0,89,4,10,1,1
1,0.529326,1,0,135,4,3,1,1
1,0.499559,1,0,36,3,12,1,1
1,0.55047,2,0,26,3,9,0,2
1,0.688144,2,0,30,3,10,3,2
1,0.290259,1,1,73,3,9,1,1
1,0.47864,2,0,7,1,11,2,2
1,0.539321,2,0,17,2,10,1,1
1,0.701409,2,0,123,3,4,2,2
1,0.304627,1,0,27,3,9,1,1
1,0.57741,2,0,131,3,4,1,1
1,0.521018,2,1,20,2,11,3,2
1,0.811602,2,0,115,2,1,3,2
1,0.810581,2,0,48,4,12,0,2
1,0.833644,1,0,8,1,11,1,1
1,0.599533,2,0,57,1,11,1,1
1,0.485892,1,0,45,4,11,3,2
1,0.626014,1,0,65,2,10,1,1
1,0.591631,2,0,78,3,10,1,1
1,0.631555,1,0,114,2,1,2,2
1,0.621536,1,0,120,2,1,3,2
1,0.89979,1,0,3,1,9,0,2
1,0.590245,2,0,102,1,2,3,2
1,0.549936,1,0,6,1,10,1,1
1,0.75097,2,0,134,4,3,3,2
1,0.487967,1,0,88,4,10,1,1
1,0.748658,1,0,105,1,2,1,1
1,0.502352,2,0,33,3,11,2,2
1,0.66517,1,0,136,4,3,2,2
1,0.701866,1,0,126,3,4,3,2
1,0.512618,2,0,81,3,11,1,1
1,0.643232,2,0,118,2,1,2,2
1,0.560852,2,0,2,1,9,1,1
1,0.610532,2,0,39,4,9,3,2
1,0.615661,2,0,59,1,12,1,1
1,0.574779,2,1,140,4,3,2,2
1,0.671395,2,0,22,2,12,2,2
1,0.788072,1,0,117,2,1,1,1
1,0.644602,1,0,56,1,11,1,1
1,0.482334,2,0,54,1,10,1,1
1,0.397396,1,0,67,2,11,1,1
1,0.653521,1,0,132,3,4,1,1
1,0.650682,1,0,63,2,9,1,1
1,0.335812,1,1,142,4,3,1,1
1,1.001595,1,1,61,2,9,1,1
1,0.631985,1,0,49,1,9,1,1
1,0.597543,2,0,96,4,12,1,1
1,0.541943,2,0,25,3,9,1,1
1,0.638907,2,0,76,3,10,1,1
1,0.95721,1,0,129,3,4,2,2
1,0.910159,1,0,31,3,11,0,2
1,0.681259,1,0,52,1,10,1,1
1,0.708968,1,0,53,1,10,1,1
1,0.591787,1,0,47,4,12,1,1
1,0.920446,2,0,113,2,1,1,1
1,0.491127,1,0,133,4,3,2,2
1,0.606766,1,0,116,2,1,3,2
1,0.773826,2,0,37,4,9,0,2
1,0.806221,1,1,14,2,9,0,2
1,0.629564,2,0,64,2,10,1,1
1,1.170151,2,0,10,1,12,2,2
1,0.90744,2,0,108,1,2,2,2
1,0.486389,1,0,95,4,12,1,1
1,0.761057,2,0,35,3,12,0,2
1,0.498914,1,0,42,4,10,0,2
1,0.69464,2,0,5,1,10,0,2
1,0.697537,2,0,50,1,9,1,1
1,0.469439,1,0,19,2,11,1,1
1,0.593655,2,0,121,3,4,1,1
1,0.601533,1,0,32,3,11,3,2
1,0.559811,2,0,71,2,12,1,1
1,0.640895,1,1,18,2,10,1,1
1,0.830594,1,0,128,3,4,2,2
1,0.70013,2,0,125,3,4,3,2
1,0.567952,2,0,40,4,10,1,1
1,0.528099,1,0,126,3,4,3,2
1,1.002997,1,0,120,2,1,3,2
1,0.586084,2,0,41,4,10,2,2
1,0.609231,1,0,103,1,2,2,2
1,0.689065,1,0,4,1,10,3,2
1,0.605322,1,0,9,1,11,0,2
1,0.564061,2,0,144,4,3,2,2
1,0.477248,1,0,6,1,10,1,1
1,0.721882,2,0,35,3,12,0,2
1,0.499541,1,0,75,3,9,1,1
1,0.942615,1,1,26,3,9,0,2
1,0.704968,1,0,101,1,2,3,2
1,0.748235,2,0,58,1,12,1,1
1,0.709599,2,0,104,1,2,2,2
1,0.54498,1,0,56,1,11,1,1
1,0.650768,2,0,68,2,11,1,1
1,0.615834,1,0,116,2,1,3,2
1,0.734815,2,0,121,3,4,1,1
1,0.791947,1,0,97,1,2,3,2
1,0.624095,1,0,110,2,1,3,2
1,0.629652,2,0,108,1,2,2,2
1,0.540061,2,0,123,3,4,2,2
1,0.542142,2,0,81,3,11,1,1
1,0.575676,2,0,30,3,10,3,2
1,0.785066,2,0,21,2,11,3,2
1,0.440937,1,0,16,2,10,0,2
1,0.454716,2,1,20,2,11,3,2
1,0.652482,1,0,31,3,11,0,2
1,0.672946,1,0,3,1,9,0,2
1,0.565197,1,0,136,4,3,2,2
1,0.581136,1,0,19,2,11,1,1
1,0.614127,1,0,88,4,10,1,1
1,0.652352,2,0,25,3,9,1,1
1,0.841566,2,0,33,3,11,2,2
1,0.60769,2,0,60,1,12,1,1
1,0.478736,1,0,46,4,12,2,2
1,0.402739,1,0,80,3,11,1,1
1,0.737576,1,0,105,1,2,1,1
1,0.627524,2,0,93,4,11,1,1
1,0.433544,1,0,70,2,12,1,1
1,0.368026,2,0,59,1,12,1,1
1,0.512323,1,0,63,2,9,1,1
1,0.434439,1,0,99,1,2,1,1
1,0.592575,2,0,38,4,9,1,1
1,0.496364,1,1,48,4,12,0,2
1,1.099617,2,1,15,2,9,1,1
1,0.647044,2,0,18,2,10,1,1
1,0.587595,2,0,17,2,10,1,1
1,0.500121,2,0,139,4,3,3,2
1,0.551564,2,0,29,3,10,1,1
1,0.697217,1,0,34,3,12,2,2
1,0.88343,1,0,129,3,4,2,2
1,0.599861,2,0,102,1,2,3,2
1,0.51872,1,0,65,2,10,1,1
1,0.361677,1,0,133,4,3,2,2
1,0.625534,2,0,109,2,1,2,2
1,0.464199,1,0,28,3,10,0,2
1,0.460505,1,0,27,3,9,1,1
1,0.457579,1,0,90,4,10,1,1
1,0.486366,2,0,107,1,2,1,1
1,0.466462,1,0,44,4,11,1,1
1,0.854914,2,0,10,1,12,2,2
1,0.323754,1,1,13,2,9,2,2
1,0.574414,2,0,85,4,9,1,1
1,0.679011,1,0,114,2,1,2,2
1,0.538878,2,0,96,4,12,1,1
1,0.701382,2,0,113,2,1,1,1
1,0.816145,2,0,57,1,11,1,1
1,0.558395,1,0,140,4,3,2,2
1,0.575491,2,0,14,2,9,0,2
1,0.439522,1,0,67,2,11,1,1
1,0.805796,1,0,122,3,4,1,1
1,0.620233,2,0,72,2,12,1,1
1,0.658766,2,0,94,4,12,1,1
1,0.447695,1,0,55,1,11,1,1
1,0.517452,2,0,73,3,9,1,1
1,0.647919,2,0,111,2,1,1,1
1,0.468867,1,0,51,1,9,1,1
1,0.673427,2,0,100,1,2,2,2
1,0.542258,2,0,98,1,2,1,1
1,0.784168,1,0,43,4,11,0,2
1,0.599926,2,0,78,3,10,1,1
1,0.663697,2,0,125,3,4,3,2
1,0.476146,1,0,141,4,3,1,1
1,0.472009,2,0,62,2,9,1,1
1,0.532674,2,0,54,1,10,1,1
1,0.574527,1,0,128,3,4,2,2
1,0.742765,1,0,91,4,11,1,1
1,0.57661,2,0,89,4,10,1,1
1,0.97711,2,0,37,4,9,0,2
1,0.569185,2,0,124,3,4,3,2
1,0.577503,2,0,143,4,3,1,1
1,0.706705,2,0,5,1,10,0,2
1,0.652677,1,0,138,4,3,3,2
1,0.578056,1,0,106,1,2,3,2
1,0.609459,1,0,8,1,11,1,1
1,0.568499,2,0,50,1,9,1,1
1,0.752376,2,0,1,1,9,1,1
1,0.82586,1,0,23,2,12,0,2
1,0.520812,2,0,12,1,12,3,2
1,0.594099,1,0,32,3,11,3,2
1,0.52933,1,0,66,2,10,1,1
1,0.602905,2,0,7,1,11,2,2
1,0.482374,1,0,45,4,11,3,2
1,0.597003,1,0,82,3,12,1,1
1,0.588395,2,0,2,1,9,1,1
1,0.485302,1,0,135,4,3,1,1
1,0.488377,1,0,127,3,4,2,2
1,0.555768,2,0,92,4,11,1,1
1,0.60456,2,0,134,4,3,3,2
1,0.6994,2,0,115,2,1,3,2
1,0.318349,1,0,49,1,9,1,1
1,0.512601,1,0,74,3,9,1,1
1,0.506643,1,0,42,4,10,0,2
1,0.510539,1,0,117,2,1,1,1
1,0.593649,2,0,83,3,12,1,1
1,0.464227,1,0,24,2,12,0,2
1,0.50059,2,0,76,3,10,1,1
1,0.408444,1,0,36,3,12,1,1
1,0.687569,1,0,87,4,9,1,1
1,0.786774,2,0,22,2,12,2,2
1,0.659195,1,0,79,3,11,1,1
1,0.559793,2,0,64,2,10,1,1
1,0.449507,1,1,77,3,10,1,1
1,0.646114,2,0,61,2,9,1,1
1,0.652278,2,0,142,4,3,1,1
1,0.48064,1,0,84,3,12,1,1
1,0.739749,1,0,86,4,9,1,1
1,0.572899,2,0,39,4,9,3,2
1,0.365075,1,0,47,4,12,1,1
1,0.478066,1,0,95,4,12,1,1
1,0.585486,1,0,53,1,10,1,1
1,0.649615,2,0,137,4,3,3,2
1,0.470572,1,1,71,2,12,1,1
1,1.099754,2,0,118,2,1,2,2
1,0.662292,2,0,130,3,4,3,2
1,0.690736,1,0,132,3,4,1,1
1,0.727304,2,0,119,2,1,2,2
1,0.537,1,0,69,2,11,1,1
1,0.554814,1,0,52,1,10,1,1
1,0.556018,1,0,11,1,12,0,2
1,0.58138,1,0,112,2,1,1,1
1,0.557609,2,0,131,3,4,1,1
2,0.959552,2,0,92,4,11,2,2
2,0.743031,2,0,75,3,9,1,1
2,0.592904,1,0,67,2,11,1,1
2,0.576803,2,1,64,2,10,0,2
2,0.666924,2,0,36,3,12,1,1
2,0.702364,2,0,96,4,12,0,2
2,0.666195,1,0,5,1,10,1,1
2,0.615532,1,0,83,3,12,3,2
2,0.782505,1,0,27,3,9,1,1
2,0.760077,1,0,119,2,1,1,1
2,0.537297,1,0,126,3,4,1,1
2,0.499265,2,0,72,2,12,0,2
2,0.487601,2,0,107,1,2,2,2
2,0.539711,1,0,59,1,12,0,2
2,0.511005,2,0,142,4,3,1,1
2,0.538302,2,1,10,1,12,1,1
2,0.62001,2,0,68,2,11,1,1
2,0.60388,2,0,19,2,11,1,1
2,0.740197,2,0,4,1,10,1,1
2,0.598957,1,1,60,1,12,3,2
2,0.662677,1,0,91,4,11,0,2
2,0.547136,2,0,144,4,3,1,1
2,0.629104,1,0,50,1,9,0,2
2,0.499642,2,0,44,4,11,1,1
2,0.559752,1,0,137,4,3,3,2
2,0.537764,2,0,79,3,11,0,2
2,0.468258,2,0,121,3,4,3,2
2,0.761709,2,0,78,3,10,2,2
2,0.539378,2,0,127,3,4,2,2
2,0.494816,1,0,22,2,12,1,1
2,0.618147,2,0,100,1,2,3,2
2,0.441432,1,0,32,3,11,1,1
2,0.671443,2,0,113,2,1,3,2
2,0.605764,2,1,84,3,12,1,1
2,0.444619,1,0,45,4,11,1,1
2,0.427653,1,0,118,2,1,1,1
2,0.977725,1,0,132,3,4,2,2
2,0.610769,2,0,20,2,11,1,1
2,0.506642,2,1,69,2,11,0,2
2,0.862908,2,0,143,4,3,2,2
2,0.636616,2,0,115,2,1,1,1
2,0.682678,2,0,124,3,4,2,2
2,0.438963,1,0,123,3,4,3,2
2,0.485679,1,0,74,3,9,1,1
2,0.63389,1,0,33,3,11,1,1
2,0.553018,1,0,134,4,3,1,1
2,0.506474,2,0,47,4,12,1,1
2,0.630753,1,0,106,1,2,1,1
2,0.524886,2,0,88,4,10,1,1
2,0.671169,1,1,7,1,11,1,1
2,0.564416,1,0,16,2,10,1,1
2,0.500909,1,0,94,4,12,1,1
2,0.521511,2,0,104,1,2,3,2
2,0.85206,1,1,116,2,1,3,2
2,0.545686,1,0,26,3,9,1,1
2,0.618655,1,0,73,3,9,0,2
2,0.474149,2,0,18,2,10,1,1
2,0.543511,1,0,35,3,12,1,1
2,0.513544,1,0,108,1,2,3,2
2,0.444922,1,1,29,3,10,1,1
2,0.619367,1,1,122,3,4,2,2
2,0.698659,1,0,23,2,12,1,1
2,0.501348,1,0,129,3,4,1,1
2,0.441285,2,0,76,3,10,2,2
2,0.487592,1,0,53,1,10,0,2
2,0.452492,2,0,21,2,11,1,1
2,0.538494,2,0,43,4,11,1,1
2,0.501692,2,0,111,2,1,3,2
2,0.369158,1,0,86,4,9,1,1
2,0.490563,2,0,101,1,2,1,1
2,0.414227,1,0,98,1,2,2,2
2,0.429042,2,0,30,3,10,1,1
2,0.7014,2,0,70,2,12,2,2
2,0.432111,1,0,97,1,2,2,2
2,0.518689,1,0,38,4,9,1,1
2,0.546007,1,0,110,2,1,2,2
2,0.66021,2,0,12,1,12,1,1
2,0.45724,1,1,2,1,9,1,1
2,0.557955,2,0,130,3,4,1,1
2,0.464524,2,0,71,2,12,1,1
2,0.580644,1,0,135,4,3,2,2
2,0.508952,2,0,1,1,9,1,1
2,0.456453,2,0,42,4,10,1,1
2,0.582769,1,0,109,2,1,3,2
2,0.557926,2,0,117,2,1,1,1
2,0.495284,2,0,89,4,10,1,1
2,0.443099,2,0,131,3,4,1,1
2,0.266255,1,1,41,4,10,1,1
2,0.45503,2,0,102,1,2,1,1
2,0.620425,1,0,58,1,12,1,1
2,0.588836,2,0,49,1,9,0,2
2,0.412345,2,0,37,4,9,1,1
2,0.483082,2,0,52,1,10,2,2
2,0.560008,1,0,24,2,12,1,1
2,0.544114,2,0,103,1,2,3,2
2,0.482005,1,0,8,1,11,1,1
2,0.519318,1,0,3,1,9,1,1
2,0.401845,2,0,85,4,9,0,2
2,0.482258,2,1,39,4,9,1,1
2,0.60542,1,0,6,1,10,1,1
2,0.637791,1,0,62,2,9,2,2
2,0.55601,1,0,140,4,3,1,1
2,0.414408,2,0,31,3,11,1,1
2,0.501489,1,0,46,4,12,1,1
2,0.400088,1,0,48,4,12,1,1
2,0.359874,2,0,17,2,10,1,1
2,0.401819,2,0,54,1,10,1,1
2,0.554517,1,0,139,4,3,3,2
2,0.556487,1,0,14,2,9,1,1
2,0.597628,1,0,65,2,10,0,2
2,0.485619,1,0,114,2,1,2,2
2,0.610287,1,0,128,3,4,3,2
2,0.554217,2,0,56,1,11,1,1
2,0.596165,1,0,87,4,9,0,2
2,0.500411,1,0,99,1,2,2,2
2,0.495771,2,0,11,1,12,1,1
2,0.817069,1,0,93,4,11,3,2
2,0.567727,1,1,66,2,10,3,2
2,0.657463,2,0,63,2,9,3,2
2,0.526894,1,0,57,1,11,2,2
2,0.450662,2,0,82,3,12,1,1
2,0.513626,2,0,25,3,9,1,1
2,0.468602,1,0,125,3,4,3,2
2,0.563055,1,0,81,3,11,0,2
2,0.507979,1,0,120,2,1,2,2
2,0.391906,2,0,95,4,12,2,2
2,0.488343,1,0,61,2,9,1,1
2,0.461873,1,0,28,3,10,1,1
2,0.396202,2,0,112,2,1,2,2
2,0.524619,1,0,15,2,9,1,1
2,0.536995,1,0,105,1,2,1,1
2,0.947955,2,0,141,4,3,3,2
2,0.406005,2,0,13,2,9,1,1
2,0.382494,1,0,9,1,11,1,1
2,0.350779,1,0,40,4,10,1,1
2,0.425995,2,0,34,3,12,1,1
2,0.480744,2,1,90,4,10,3,2
2,0.60592,1,0,77,3,10,3,2
2,0.485543,1,0,136,4,3,3,2
2,0.482488,2,0,80,3,11,0,2
2,0.50265,2,0,51,1,9,3,2
2,0.379844,2,0,138,4,3,2,2
2,0.460095,2,0,133,4,3,2,2
2,0.53073,1,0,55,1,11,1,1
2,0.535936,1,0,74,3,9,1,1
2,0.570656,2,1,22,2,12,1,1
2,0.692767,1,0,6,1,10,1,1
2,0.657121,1,0,59,1,12,0,2
2,0.958745,2,0,13,2,9,1,1
2,0.521317,1,0,87,4,9,0,2
2,0.693266,2,0,44,4,11,1,1
2,0.562669,2,0,111,2,1,3,2
2,0.507983,2,0,34,3,12,1,1
2,0.496645,2,0,4,1,10,1,1
2,0.429126,2,0,25,3,9,1,1
2,0.563718,1,0,134,4,3,1,1
2,0.508564,2,0,127,3,4,2,2
2,0.569326,1,0,137,4,3,3,2
2,0.427238,1,0,67,2,11,1,1
2,0.546559,2,0,60,1,12,3,2
2,0.588176,1,0,105,1,2,1,1
2,0.492573,2,0,1,1,9,1,1
2,0.569427,1,0,129,3,4,1,1
2,0.514838,2,0,18,2,10,1,1
2,0.462773,1,0,48,4,12,1,1
2,0.427879,2,0,17,2,10,1,1
2,0.467569,1,0,120,2,1,2,2
2,0.529566,1,0,50,1,9,0,2
2,0.763582,1,1,78,3,10,2,2
2,0.508751,2,0,11,1,12,1,1
2,0.497522,2,0,88,4,10,1,1
2,0.461965,2,0,36,3,12,1,1
2,0.484076,1,0,64,2,10,0,2
2,0.448106,1,0,65,2,10,0,2
2,0.35813,1,0,139,4,3,3,2
2,0.551098,1,0,58,1,12,1,1
2,0.656949,2,0,49,1,9,0,2
2,0.607282,2,0,72,2,12,0,2
2,0.527788,2,0,92,4,11,2,2
2,0.57059,2,0,144,4,3,1,1
2,0.459812,1,1,19,2,11,1,1
2,0.522518,1,0,39,4,9,1,1
2,0.502797,1,0,3,1,9,1,1
2,0.459148,1,0,91,4,11,0,2
2,0.482523,2,0,75,3,9,1,1
2,0.462255,2,0,104,1,2,3,2
2,0.539542,1,0,61,2,9,1,1
2,0.493785,2,0,142,4,3,1,1
2,0.49908,1,0,5,1,10,1,1
2,0.535112,1,0,81,3,11,0,2
2,0.427298,2,0,31,3,11,1,1
2,0.843068,2,0,100,1,2,3,2
2,0.481626,2,0,107,1,2,2,2
2,0.470765,1,0,93,4,11,3,2
2,0.524013,1,0,123,3,4,3,2
2,0.591973,2,0,47,4,12,1,1
2,0.529297,1,0,32,3,11,1,1
2,0.660025,2,0,54,1,10,1,1
2,0.393865,2,0,102,1,2,1,1
2,0.442584,1,0,9,1,11,1,1
2,0.449249,2,0,42,4,10,1,1
2,0.590141,2,0,2,1,9,1,1
2,0.567233,1,0,15,2,9,1,1
2,0.657081,2,0,122,3,4,2,2
2,0.485716,1,0,62,2,9,2,2
2,0.52291,1,0,110,2,1,2,2
2,0.462726,1,0,114,2,1,2,2
2,0.562357,2,0,131,3,4,1,1
2,0.556839,1,0,84,3,12,1,1
2,0.566426,1,0,128,3,4,3,2
2,0.351693,2,0,56,1,11,1,1
2,0.482333,1,0,109,2,1,3,2
2,0.487392,1,0,46,4,12,1,1
2,0.588451,1,0,119,2,1,1,1
2,0.533003,1,0,132,3,4,2,2
2,0.463805,1,0,23,2,12,1,1
2,0.47648,2,0,21,2,11,1,1
2,0.529197,1,0,28,3,10,1,1
2,0.579615,2,0,96,4,12,0,2
2,0.508484,2,0,12,1,12,1,1
2,0.433395,1,0,135,4,3,2,2
2,0.424127,1,0,33,3,11,1,1
2,0.359318,1,0,94,4,12,1,1
2,0.499038,1,0,118,2,1,1,1
2,0.462161,2,0,121,3,4,3,2
2,0.491993,1,0,69,2,11,0,2
2,0.513401,2,0,82,3,12,1,1
2,0.596169,2,0,71,2,12,1,1
2,0.531566,2,0,141,4,3,3,2
2,0.501869,1,0,136,4,3,3,2
2,0.506674,2,0,68,2,11,1,1
2,0.502673,2,0,103,1,2,3,2
2,0.386727,2,0,101,1,2,1,1
2,0.404499,2,0,112,2,1,2,2
2,0.532075,2,0,43,4,11,1,1
2,0.502848,2,0,124,3,4,2,2
2,0.450806,2,0,116,2,1,3,2
2,0.394039,1,0,10,1,12,1,1
2,0.433359,1,0,57,1,11,2,2
2,0.519703,1,0,86,4,9,1,1
2,0.660391,2,0,113,2,1,3,2
2,0.466473,2,0,143,4,3,2,2
2,0.359965,2,1,38,4,9,1,1
2,0.578276,2,0,20,2,11,1,1
2,0.507015,1,0,73,3,9,0,2
2,0.480126,1,0,16,2,10,1,1
2,0.516953,1,0,53,1,10,0,2
2,0.432534,2,0,85,4,9,0,2
2,0.431136,2,0,115,2,1,1,1
2,0.5092,1,1,63,2,9,3,2
2,0.450306,1,0,24,2,12,1,1
2,0.535952,2,0,89,4,10,1,1
2,0.433978,1,0,106,1,2,1,1
2,0.45752,2,1,108,1,2,3,2
2,0.488271,1,0,40,4,10,1,1
2,0.65305,1,0,35,3,12,1,1
2,0.531051,2,0,117,2,1,1,1
2,0.589158,2,0,95,4,12,2,2
2,0.550446,2,0,80,3,11,0,2
2,0.520303,2,0,133,4,3,2,2
2,0.660359,2,0,79,3,11,0,2
2,0.58708,1,0,27,3,9,1,1
2,0.452443,1,0,140,4,3,1,1
2,0.449177,2,0,37,4,9,1,1
2,0.56843,1,0,77,3,10,3,2
2,0.792627,1,0,99,1,2,2,2
2,0.592475,1,0,125,3,4,3,2
2,0.458651,2,0,52,1,10,2,2
2,0.496982,1,0,26,3,9,1,1
2,0.629466,2,0,138,4,3,2,2
2,0.444831,1,0,8,1,11,1,1
2,0.586566,1,0,90,4,10,3,2
2,0.515389,2,0,51,1,9,3,2
2,0.511188,2,0,76,3,10,2,2
2,0.505962,1,0,98,1,2,2,2
2,0.518743,2,0,70,2,12,2,2
2,0.480948,2,0,7,1,11,1,1
2,0.502136,2,0,41,4,10,1,1
2,0.418026,2,0,130,3,4,1,1
2,0.488717,1,0,83,3,12,3,2
2,0.477978,2,0,30,3,10,1,1
2,0.483626,1,0,45,4,11,1,1
2,0.695531,1,0,14,2,9,1,1
2,0.571949,1,0,97,1,2,2,2
2,0.381807,2,1,126,3,4,1,1
2,0.549897,1,0,55,1,11,1,1
2,0.519803,2,0,29,3,10,1,1
2,0.964125,2,0,66,2,10,3,2
2,0.514647,1,0,46,4,12,1,1
2,0.422328,2,1,135,4,3,2,2
2,0.613788,2,0,104,1,2,3,2
2,0.532833,2,0,44,4,11,1,1
2,0.487881,1,0,15,2,9,1,1
2,0.420501,1,0,114,2,1,2,2
2,0.482835,2,0,82,3,12,1,1
2,0.615572,2,0,60,1,12,3,2
2,0.478748,2,0,17,2,10,1,1
2,0.475354,2,0,20,2,11,1,1
2,0.545037,1,0,24,2,12,1,1
2,0.691013,1,0,109,2,1,3,2
2,0.567318,2,0,76,3,10,2,2
2,0.584202,2,0,103,1,2,3,2
2,0.496877,1,0,38,4,9,1,1
2,0.40471,1,0,86,4,9,1,1
2,0.476689,1,0,32,3,11,1,1
2,0.489686,2,0,117,2,1,1,1
2,0.423308,2,0,141,4,3,3,2
2,0.40654,2,0,122,3,4,2,2
2,0.543224,1,0,10,1,12,1,1
2,0.409209,1,0,84,3,12,1,1
2,0.474199,1,0,23,2,12,1,1
2,0.527828,2,0,54,1,10,1,1
2,0.554004,1,0,129,3,4,1,1
2,0.452481,1,0,28,3,10,1,1
2,0.514572,2,0,11,1,12,1,1
2,0.653567,1,0,105,1,2,1,1
2,0.54692,2,0,68,2,11,1,1
2,0.526086,1,0,97,1,2,2,2
2,0.529525,1,0,99,1,2,2,2
2,0.572059,1,0,123,3,4,3,2
2,0.461548,1,0,67,2,11,1,1
2,0.57113,2,0,80,3,11,0,2
2,0.532272,2,0,51,1,9,3,2
2,0.535452,2,0,89,4,10,1,1
2,0.482443,2,0,12,1,12,1,1
2,0.3828,1,0,39,4,9,1,1
2,0.599479,2,0,52,1,10,2,2
2,0.487804,2,0,31,3,11,1,1
2,0.660729,2,0,121,3,4,3,2
2,0.713385,1,1,133,4,3,2,2
2,0.452529,2,0,56,1,11,1,1
2,0.563123,1,0,62,2,9,2,2
2,0.468188,1,0,45,4,11,1,1
2,0.689722,1,1,78,3,10,2,2
2,0.671083,1,0,9,1,11,1,1
2,0.556613,1,0,57,1,11,2,2
2,0.429934,2,0,4,1,10,1,1
2,0.605605,1,0,22,2,12,1,1
2,0.533196,2,0,130,3,4,1,1
2,0.487985,2,0,107,1,2,2,2
2,0.508371,1,0,108,1,2,3,2
2,0.545329,1,0,132,3,4,2,2
2,0.507607,1,0,48,4,12,1,1
2,0.551897,2,0,7,1,11,1,1
2,0.577914,1,0,91,4,11,0,2
2,0.48178,2,0,71,2,12,1,1
2,0.438755,2,0,144,4,3,1,1
2,0.477318,2,0,41,4,10,1,1
2,0.62393,2,0,63,2,9,3,2
2,0.551843,1,0,140,4,3,1,1
2,0.674258,1,0,59,1,12,0,2
2,0.463886,2,0,21,2,11,1,1
2,0.605862,1,0,14,2,9,1,1
2,0.517803,2,0,49,1,9,0,2
2,0.585725,1,0,26,3,9,1,1
2,0.473728,1,0,33,3,11,1,1
2,0.52845,1,0,81,3,11,0,2
2,0.442364,1,0,40,4,10,1,1
2,0.456265,1,0,6,1,10,1,1
2,0.486204,1,0,106,1,2,1,1
2,0.491378,2,0,2,1,9,1,1
2,0.497385,2,0,124,3,4,2,2
2,0.573217,2,0,66,2,10,3,2
2,0.831787,2,0,143,4,3,2,2
2,0.558085,1,0,55,1,11,1,1
2,0.60123,1,0,83,3,12,3,2
2,0.464492,2,0,29,3,10,1,1
2,0.573684,1,1,131,3,4,1,1
2,0.624098,2,0,102,1,2,1,1
2,0.55194,2,0,1,1,9,1,1
2,0.393582,2,1,58,1,12,1,1
2,0.60226,2,0,19,2,11,1,1
2,0.449595,2,0,42,4,10,1,1
2,0.455855,2,0,25,3,9,1,1
2,0.429641,2,0,88,4,10,1,1
2,0.764215,1,0,61,2,9,1,1
2,0.494427,1,0,73,3,9,0,2
2,0.498729,1,0,53,1,10,0,2
2,0.478628,2,0,30,3,10,1,1
2,0.499229,1,0,120,2,1,2,2
2,0.479336,2,0,36,3,12,1,1
2,0.493172,1,0,74,3,9,1,1
2,0.569417,2,0,85,4,9,0,2
2,0.5559,1,0,94,4,12,1,1
2,0.652625,1,0,137,4,3,3,2
2,0.458668,1,0,119,2,1,1,1
2,0.775819,1,0,128,3,4,3,2
2,0.449126,1,0,134,4,3,1,1
2,0.4556,2,0,47,4,12,1,1
2,0.422456,2,0,142,4,3,1,1
2,0.517484,1,0,50,1,9,0,2
2,0.512283,2,0,101,1,2,1,1
2,0.531607,1,0,35,3,12,1,1
2,0.470928,1,0,139,4,3,3,2
2,0.508325,2,0,37,4,9,1,1
2,0.575433,1,0,65,2,10,0,2
2,0.505671,1,0,3,1,9,1,1
2,0.454157,2,0,112,2,1,2,2
2,0.500032,1,0,69,2,11,0,2
2,0.712086,2,0,111,2,1,3,2
2,0.691632,2,0,96,4,12,0,2
2,0.52009,1,0,125,3,4,3,2
2,0.563325,2,0,92,4,11,2,2
2,0.549911,1,0,98,1,2,2,2
2,0.535172,1,0,93,4,11,3,2
2,0.577898,1,0,110,2,1,2,2
2,0.507178,1,0,64,2,10,0,2
2,0.42321,2,0,43,4,11,1,1
2,0.517922,1,0,77,3,10,3,2
2,0.777171,2,0,75,3,9,1,1
2,0.393974,2,0,115,2,1,1,1
2,0.458581,2,0,100,1,2,3,2
2,0.520418,2,0,116,2,1,3,2
2,0.506805,1,0,90,4,10,3,2
2,0.50311,2,0,95,4,12,2,2
2,0.443623,2,1,126,3,4,1,1
2,0.497181,2,0,127,3,4,2,2
2,0.565209,1,0,16,2,10,1,1
2,0.462443,1,0,27,3,9,1,1
2,0.437275,2,0,13,2,9,1,1
2,0.41989,2,0,18,2,10,1,1
2,0.466998,1,0,136,4,3,3,2
2,0.544698,2,0,70,2,12,2,2
2,0.458271,2,0,79,3,11,0,2
2,0.46466,2,0,138,4,3,2,2
2,0.518762,2,0,34,3,12,1,1
2,0.498198,1,0,118,2,1,1,1
2,0.502189,1,0,5,1,10,1,1
2,0.506145,1,0,8,1,11,1,1
2,0.493904,1,0,87,4,9,0,2
2,0.586143,2,0,113,2,1,3,2
2,0.458601,2,0,72,2,12,0,2
3,1.461649,2,0,58,1,12,2,2
3,0.837355,2,1,6,1,10,1,1
3,3.042786,1,1,44,4,11,1,1
3,4.992703,2,0,133,4,3,3,2
3,1.097097,2,0,47,4,12,1,1
3,1.324303,2,0,131,3,4,3,2
3,2.974957,1,0,76,3,10,3,2
3,1.35152,2,0,74,3,9,2,2
3,1.01911,2,0,62,2,9,1,1
3,0.9216,2,0,134,4,3,1,1
3,1.099778,2,0,70,2,12,0,2
3,1.470467,2,0,113,2,1,3,2
3,3.031815,2,0,41,4,10,1,1
3,0.981343,1,0,78,3,10,1,1
3,1.309161,2,0,50,1,9,1,1
3,1.184081,1,0,118,2,1,3,2
3,1.152921,2,0,77,3,10,0,2
3,1.233601,2,0,52,1,10,0,2
3,0.879895,2,0,142,4,3,1,1
3,1.131778,1,0,16,2,10,1,1
3,2.089173,1,1,114,2,1,2,2
3,0.958573,2,0,61,2,9,2,2
3,0.613076,1,0,140,4,3,2,2
3,0.947984,2,0,28,3,10,1,1
3,1.133359,2,0,18,2,10,1,1
3,1.054155,1,0,72,2,12,1,1
3,1.083442,2,0,5,1,10,1,1
3,0.791341,2,0,15,2,9,1,1
3,0.719198,2,0,40,4,10,1,1
3,0.88197,1,1,97,1,2,1,1
3,0.941932,1,0,26,3,9,1,1
3,0.647562,2,0,12,1,12,1,1
3,1.380906,1,0,65,2,10,1,1
3,0.672757,1,0,73,3,9,3,2
3,0.635108,1,0,25,3,9,1,1
3,1.001186,1,0,135,4,3,2,2
3,0.744256,2,0,95,4,12,0,2
3,1.226796,1,0,48,4,12,1,1
3,0.837468,1,0,104,1,2,3,2
3,1.328264,2,1,71,2,12,2,2
3,0.817749,2,0,85,4,9,1,1
3,1.795266,1,0,116,2,1,2,2
3,0.632917,2,0,39,4,9,1,1
3,0.659583,2,0,81,3,11,2,2
3,0.98954,1,0,108,1,2,3,2
3,0.950581,1,1,29,3,10,1,1
3,0.976021,1,0,79,3,11,0,2
3,0.991792,1,0,112,2,1,1,1
3,0.735739,1,0,75,3,9,0,2
3,0.754661,1,0,37,4,9,1,1
3,0.835899,1,0,69,2,11,0,2
3,0.86099,2,0,141,4,3,3,2
3,1.586036,1,0,126,3,4,2,2
3,0.770339,1,0,144,4,3,1,1
3,0.58705,1,0,45,4,11,1,1
3,0.522791,1,0,124,3,4,1,1
3,0.74167,2,0,59,1,12,0,2
3,1.111068,2,0,119,2,1,1,1
3,1.273915,1,0,14,2,9,1,1
3,0.929197,1,0,117,2,1,3,2
3,0.881538,2,0,84,3,12,1,1
3,1.101498,2,0,82,3,12,0,2
3,0.736659,2,0,11,1,12,1,1
3,0.730081,2,0,92,4,11,0,2
3,1.52498,2,0,68,2,11,1,1
3,0.783105,1,0,128,3,4,3,2
3,0.89055,1,0,42,4,10,1,1
3,0.731007,2,0,103,1,2,2,2
3,0.86169,1,0,111,2,1,2,2
3,0.803514,1,0,129,3,4,3,2
3,0.939062,1,0,2,1,9,1,1
3,0.69107,1,0,67,2,11,3,2
3,0.872021,1,0,90,4,10,1,1
3,0.769025,2,0,87,4,9,3,2
3,0.779593,2,0,89,4,10,2,2
3,1.388598,2,0,51,1,9,1,1
3,0.59685,1,0,80,3,11,1,1
3,0.64367,1,0,55,1,11,2,2
3,1.310842,2,0,57,1,11,3,2
3,0.643749,1,0,54,1,10,1,1
3,0.634129,1,0,96,4,12,1,1
3,0.671906,1,0,35,3,12,1,1
3,0.94846,2,0,98,1,2,1,1
3,0.716782,1,0,120,2,1,3,2
3,0.712241,2,0,100,1,2,3,2
3,1.010944,2,0,30,3,10,1,1
3,1.322155,2,0,23,2,12,1,1
3,1.043963,2,0,31,3,11,1,1
3,0.682105,1,0,22,2,12,1,1
3,1.101203,1,0,43,4,11,1,1
3,1.064437,1,0,143,4,3,1,1
3,0.70168,2,0,63,2,9,0,2
3,1.07342,1,0,122,3,4,1,1
3,0.962541,2,0,93,4,11,2,2
3,1.270462,2,0,27,3,9,1,1
3,0.699144,2,0,46,4,12,1,1
3,0.895119,1,0,64,2,10,3,2
3,1.454524,2,0,91,4,11,1,1
3,0.946206,2,0,53,1,10,3,2
3,0.894496,2,0,132,3,4,2,2
3,0.696506,2,0,125,3,4,1,1
3,0.835751,1,0,7,1,11,1,1
3,1.233952,2,1,24,2,12,1,1
3,1.375687,2,0,83,3,12,1,1
3,0.727529,2,0,66,2,10,0,2
3,0.633647,1,0,123,3,4,2,2
3,0.871012,2,0,9,1,11,1,1
3,0.771503,1,0,38,4,9,1,1
3,0.820861,2,0,8,1,11,1,1
3,0.899604,1,0,10,1,12,1,1
3,1.134213,1,0,33,3,11,1,1
3,0.736661,2,0,32,3,11,1,1
3,0.818136,2,0,106,1,2,2,2
3,0.64138,2,0,3,1,9,1,1
3,1.751252,2,0,139,4,3,3,2
3,0.968065,1,0,137,4,3,3,2
3,0.680387,2,0,138,4,3,2,2
3,0.916629,1,0,102,1,2,1,1
3,0.790714,1,0,136,4,3,2,2
3,0.606212,1,0,21,2,11,1,1
3,1.110037,1,0,20,2,11,1,1
3,0.575575,2,0,19,2,11,1,1
3,1.29452,1,0,86,4,9,3,2
3,0.467347,1,0,105,1,2,1,1
3,0.728538,1,0,4,1,10,1,1
3,0.6907,2,0,115,2,1,1,1
3,0.631035,2,0,109,2,1,2,2
3,0.796787,1,0,130,3,4,2,2
3,0.540179,1,0,110,2,1,1,1
3,0.789775,2,0,56,1,11,0,2
3,0.66223,1,0,34,3,12,1,1
3,0.882251,2,0,17,2,10,1,1
3,1.390788,1,0,49,1,9,0,2
3,0.886291,1,0,1,1,9,1,1
3,0.56263,1,0,88,4,10,0,2
3,0.523082,1,0,36,3,12,1,1
3,0.772996,2,0,101,1,2,2,2
3,0.605916,2,0,121,3,4,1,1
3,0.660301,1,0,94,4,12,0,2
3,0.505029,1,0,60,1,12,1,1
3,1.372334,1,0,107,1,2,2,2
3,0.932558,2,0,13,2,9,1,1
3,0.521047,1,0,99,1,2,3,2
3,1.02626,2,0,127,3,4,3,2
3,1.163332,2,0,30,3,10,1,1
3,0.92223,1,0,116,2,1,2,2
3,0.611438,1,0,88,4,10,0,2
3,0.828078,1,0,89,4,10,2,2
3,0.840006,1,0,76,3,10,3,2
3,0.746007,1,0,107,1,2,2,2
3,0.627794,1,0,130,3,4,2,2
3,0.625489,2,0,46,4,12,1,1
3,0.759987,2,0,104,1,2,3,2
3,0.509774,2,0,17,2,10,1,1
3,0.829001,1,0,99,1,2,3,2
3,0.697901,1,0,7,1,11,1,1
3,0.541504,2,0,100,1,2,3,2
3,0.638856,1,1,50,1,9,1,1
3,1.14965,2,0,66,2,10,0,2
3,0.910411,2,0,3,1,9,1,1
3,0.771693,1,0,141,4,3,3,2
3,1.07687,2,0,55,1,11,2,2
3,0.613351,2,0,28,3,10,1,1
3,0.915852,1,0,102,1,2,1,1
3,0.662375,1,0,54,1,10,1,1
3,0.667329,1,0,34,3,12,1,1
3,1.000119,1,0,22,2,12,1,1
3,0.815205,1,0,94,4,12,0,2
3,0.760907,1,0,64,2,10,3,2
3,0.699597,1,0,65,2,10,1,1
3,0.782942,2,0,92,4,11,0,2
3,0.732965,1,0,74,3,9,2,2
3,0.74998,2,0,77,3,10,0,2
3,0.686807,2,0,19,2,11,1,1
3,0.659218,2,0,31,3,11,1,1
3,0.656542,1,0,43,4,11,1,1
3,0.661265,1,0,96,4,12,1,1
3,0.858267,1,0,128,3,4,3,2
3,0.67437,2,0,18,2,10,1,1
3,0.734997,2,1,49,1,9,0,2
3,0.848083,1,0,25,3,9,1,1
3,0.925793,2,0,85,4,9,1,1
3,0.576257,2,0,84,3,12,1,1
3,0.692101,2,0,71,2,12,2,2
3,1.093714,2,0,62,2,9,1,1
3,0.929922,2,0,32,3,11,1,1
3,0.643345,1,0,126,3,4,2,2
3,0.889379,2,0,13,2,9,1,1
3,0.588891,2,0,9,1,11,1,1
3,0.650995,1,0,137,4,3,3,2
3,0.920074,2,0,95,4,12,0,2
3,0.75758,2,0,106,1,2,2,2
3,0.681954,2,0,57,1,11,3,2
3,0.884021,1,0,78,3,10,1,1
3,0.792369,2,1,108,1,2,3,2
3,0.694889,1,0,26,3,9,1,1
3,0.667086,1,0,124,3,4,1,1
3,0.984296,1,0,2,1,9,1,1
3,0.640676,2,0,142,4,3,1,1
3,0.653754,2,0,41,4,10,1,1
3,0.763774,2,0,68,2,11,1,1
3,0.843109,1,0,135,4,3,2,2
3,0.834137,1,0,105,1,2,1,1
3,0.791839,1,0,136,4,3,2,2
3,0.583722,1,0,37,4,9,1,1
3,0.567733,1,0,122,3,4,1,1
3,0.520017,2,0,27,3,9,1,1
3,0.77774,2,0,98,1,2,1,1
3,0.690435,1,0,75,3,9,0,2
3,0.638585,1,0,21,2,11,1,1
3,0.740385,2,0,44,4,11,1,1
3,1.325297,1,0,14,2,9,1,1
3,0.639693,2,0,134,4,3,1,1
3,0.645491,1,0,42,4,10,1,1
3,0.555992,1,0,24,2,12,1,1
3,0.653172,1,0,45,4,11,1,1
3,0.631484,1,0,80,3,11,1,1
3,0.781766,1,0,132,3,4,2,2
3,0.794916,1,0,67,2,11,3,2
3,0.615486,1,0,48,4,12,1,1
3,0.805819,1,0,113,2,1,3,2
3,0.572975,2,0,12,1,12,1,1
3,0.967294,2,0,93,4,11,2,2
3,0.901064,1,0,86,4,9,3,2
3,0.688272,2,0,63,2,9,0,2
3,0.588046,2,0,15,2,9,1,1
3,0.579649,2,0,97,1,2,1,1
3,0.643484,1,0,20,2,11,1,1
3,0.616625,2,0,139,4,3,3,2
3,1.015248,2,0,5,1,10,1,1
3,0.638899,1,0,1,1,9,1,1
3,0.748496,2,0,133,4,3,3,2
3,0.846037,2,0,59,1,12,0,2
3,0.603328,1,0,38,4,9,1,1
3,0.594839,1,0,118,2,1,3,2
3,0.977532,2,0,119,2,1,1,1
3,0.706083,2,0,117,2,1,3,2
3,0.573658,2,0,51,1,9,1,1
3,0.958535,1,0,110,2,1,1,1
3,0.751244,2,0,52,1,10,0,2
3,0.912861,2,0,70,2,12,0,2
3,0.570777,2,0,91,4,11,1,1
3,0.555577,2,0,23,2,12,1,1
3,0.814858,1,0,140,4,3,2,2
3,0.557864,2,0,83,3,12,1,1
3,0.69573,2,0,115,2,1,1,1
3,0.531771,1,0,35,3,12,1,1
3,0.981244,2,1,131,3,4,3,2
3,0.813021,2,0,39,4,9,1,1
3,0.865137,1,0,101,1,2,2,2
3,0.800124,1,0,6,1,10,1,1
3,0.740517,2,0,61,2,9,2,2
3,0.905725,1,0,129,3,4,3,2
3,0.655665,2,0,127,3,4,3,2
3,0.644347,2,0,11,1,12,1,1
3,0.650473,1,0,69,2,11,0,2
3,0.645119,2,0,103,1,2,2,2
3,0.672092,2,0,29,3,10,1,1
3,0.662822,2,0,138,4,3,2,2
3,0.758462,1,0,4,1,10,1,1
3,0.688327,2,0,82,3,12,0,2
3,0.946951,2,0,40,4,10,1,1
3,0.612835,1,0,16,2,10,1,1
3,0.659199,1,0,144,4,3,1,1
3,0.664117,2,0,109,2,1,2,2
3,0.581692,2,0,53,1,10,3,2
3,1.244692,2,0,56,1,11,0,2
3,1.090943,2,0,73,3,9,3,2
3,0.652393,1,0,36,3,12,1,1
3,0.633389,2,0,121,3,4,1,1
3,1.21037,1,0,81,3,11,2,2
3,0.727136,1,0,79,3,11,0,2
3,0.975568,2,0,123,3,4,2,2
3,0.743845,1,0,143,4,3,1,1
3,0.946303,1,0,112,2,1,1,1
3,0.50445,1,0,87,4,9,3,2
3,0.606047,2,0,47,4,12,1,1
3,0.821349,1,0,72,2,12,1,1
3,0.719136,2,0,111,2,1,2,2
3,0.902165,2,0,125,3,4,1,1
3,0.617039,2,0,8,1,11,1,1
3,0.732356,1,0,58,1,12,2,2
3,0.785369,1,0,60,1,12,1,1
3,0.632619,1,0,90,4,10,1,1
3,0.639007,1,0,33,3,11,1,1
3,0.6846,1,0,10,1,12,1,1
3,0.924147,2,0,120,2,1,3,2
3,0.843912,1,0,114,2,1,2,2
3,1.109364,2,0,92,4,11,0,2
3,0.782988,1,0,99,1,2,3,2
3,0.852027,2,0,116,2,1,2,2
3,0.713721,1,0,113,2,1,3,2
3,0.654087,2,0,70,2,12,0,2
3,0.739168,2,0,41,4,10,1,1
3,0.59715,1,0,102,1,2,1,1
3,0.620678,2,0,8,1,11,1,1
3,0.617281,1,0,133,4,3,3,2
3,0.610635,2,0,30,3,10,1,1
3,0.594023,2,0,50,1,9,1,1
3,0.553132,2,0,3,1,9,1,1
3,0.674731,1,0,14,2,9,1,1
3,0.697231,1,0,67,2,11,3,2
3,0.879155,1,0,60,1,12,1,1
3,0.586515,2,0,15,2,9,1,1
3,0.641728,2,0,40,4,10,1,1
3,0.711623,2,1,123,3,4,2,2
3,0.95397,2,0,18,2,10,1,1
3,1.107901,2,0,74,3,9,2,2
3,0.577139,2,0,84,3,12,1,1
3,0.656734,1,0,53,1,10,3,2
3,0.884679,2,1,20,2,11,1,1
3,0.848277,1,0,21,2,11,1,1
3,0.773675,2,0,11,1,12,1,1
3,0.749145,1,0,78,3,10,1,1
3,0.574237,1,0,112,2,1,1,1
3,0.727727,1,0,105,1,2,1,1
3,0.626591,2,0,29,3,10,1,1
3,0.624568,1,0,110,2,1,1,1
3,0.519247,2,0,121,3,4,1,1
3,0.818486,1,0,65,2,10,1,1
3,0.9524,2,0,83,3,12,1,1
3,0.63347,2,0,51,1,9,1,1
3,0.631076,2,0,77,3,10,0,2
3,0.676886,2,0,13,2,9,1,1
3,0.578755,2,0,57,1,11,3,2
3,1.10406,2,0,46,4,12,1,1
3,0.579016,2,0,12,1,12,1,1
3,0.498736,2,0,106,1,2,2,2
3,1.070491,1,0,126,3,4,2,2
3,0.899465,1,0,4,1,10,1,1
3,0.655038,1,0,124,3,4,1,1
3,0.596556,1,0,1,1,9,1,1
3,0.707882,1,0,76,3,10,3,2
3,0.737089,1,0,49,1,9,0,2
3,0.720554,2,0,132,3,4,2,2
3,0.540674,2,0,27,3,9,1,1
3,0.63044,1,0,55,1,11,2,2
3,0.667008,1,0,34,3,12,1,1
3,0.567644,1,0,88,4,10,0,2
3,0.75231,1,0,136,4,3,2,2
3,0.593081,1,0,45,4,11,1,1
3,0.609332,2,0,129,3,4,3,2
3,0.616646,2,0,142,4,3,1,1
3,0.702783,2,0,119,2,1,1,1
3,0.610157,1,0,128,3,4,3,2
3,0.728607,1,0,7,1,11,1,1
3,0.851783,2,0,137,4,3,3,2
3,0.73632,2,0,103,1,2,2,2
3,0.782293,2,1,130,3,4,2,2
3,0.877299,1,0,122,3,4,1,1
3,0.572896,2,0,140,4,3,2,2
3,0.713685,2,0,125,3,4,1,1
3,0.76457,2,0,47,4,12,1,1
3,0.824781,2,0,135,4,3,2,2
3,0.63809,1,0,120,2,1,3,2
3,0.720606,1,0,69,2,11,0,2
3,0.747206,1,0,107,1,2,2,2
3,0.869059,1,0,79,3,11,0,2
3,0.722397,2,0,93,4,11,2,2
3,0.796113,2,0,114,2,1,2,2
3,0.657835,1,0,80,3,11,1,1
3,0.902917,2,0,63,2,9,0,2
3,0.842987,2,0,5,1,10,1,1
3,0.608372,2,0,117,2,1,3,2
3,0.559716,2,0,23,2,12,1,1
3,1.191071,2,0,61,2,9,2,2
3,0.762916,2,0,66,2,10,0,2
3,0.579446,1,0,54,1,10,1,1
3,0.81203,2,0,68,2,11,1,1
3,0.619194,2,0,95,4,12,0,2
3,0.489717,2,0,91,4,11,1,1
3,0.596665,1,0,90,4,10,1,1
3,0.548703,2,0,17,2,10,1,1
3,0.622873,1,0,71,2,12,2,2
3,0.613095,2,0,115,2,1,1,1
3,0.737991,2,0,100,1,2,3,2
3,0.77418,2,0,141,4,3,3,2
3,0.534251,1,0,72,2,12,1,1
3,0.551669,2,0,32,3,11,1,1
3,0.648842,1,0,26,3,9,1,1
3,1.02215,2,0,109,2,1,2,2
3,0.509274,2,0,134,4,3,1,1
3,0.920132,1,0,48,4,12,1,1
3,0.922876,2,0,131,3,4,3,2
3,0.677271,1,0,25,3,9,1,1
3,0.648062,1,0,111,2,1,2,2
3,0.61348,1,0,22,2,12,1,1
3,0.867557,2,0,127,3,4,3,2
3,1.64848,2,0,59,1,12,0,2
3,0.646305,2,0,85,4,9,1,1
3,0.699448,1,0,38,4,9,1,1
3,0.726053,1,0,94,4,12,0,2
3,0.648385,1,0,33,3,11,1,1
3,0.810056,1,0,86,4,9,3,2
3,0.691195,2,0,9,1,11,1,1
3,0.646976,1,0,43,4,11,1,1
3,0.692465,1,0,108,1,2,3,2
3,0.583907,1,0,96,4,12,1,1
3,0.528359,1,0,35,3,12,1,1
3,0.540369,2,0,87,4,9,3,2
3,0.875888,1,0,37,4,9,1,1
3,0.728772,2,0,44,4,11,1,1
3,0.73948,1,0,24,2,12,1,1
3,0.525652,2,0,64,2,10,3,2
3,0.787966,1,0,2,1,9,1,1
3,0.588248,1,0,75,3,9,0,2
3,0.769883,1,0,58,1,12,2,2
3,0.701163,2,0,39,4,9,1,1
3,0.685114,1,0,81,3,11,2,2
3,0.635384,2,0,31,3,11,1,1
3,0.689506,1,0,10,1,12,1,1
3,0.765742,2,0,98,1,2,1,1
3,0.598273,2,0,97,1,2,1,1
3,0.523038,1,0,101,1,2,2,2
3,0.997524,1,0,139,4,3,3,2
3,0.680169,2,0,138,4,3,2,2
3,0.651654,1,0,42,4,10,1,1
3,0.992914,1,0,6,1,10,1,1
3,1.192301,1,0,118,2,1,3,2
3,0.667548,1,0,16,2,10,1,1
3,0.711532,1,0,104,1,2,3,2
3,0.581616,2,0,89,4,10,2,2
3,0.565702,2,0,82,3,12,0,2
3,0.885722,2,0,56,1,11,0,2
3,0.729414,1,0,143,4,3,1,1
3,0.707217,1,1,62,2,9,1,1
3,0.742626,1,0,36,3,12,1,1
3,0.712421,1,0,73,3,9,3,2
3,0.783752,2,0,19,2,11,1,1
3,1.007414,1,0,144,4,3,1,1
3,1.485663,2,0,28,3,10,1,1
3,0.658079,2,0,52,1,10,0,2
4,2.272054,2,0,84,3,12,1,1
4,1.245157,2,0,67,2,11,1,1
4,0.602059,2,0,58,1,12,1,1
4,0.704905,2,0,121,3,4,3,2
4,0.562875,2,0,143,4,3,2,2
4,0.572222,2,0,129,3,4,2,2
4,1.099769,2,0,127,3,4,1,1
4,0.510244,2,0,69,2,11,1,1
4,0.745489,1,0,88,4,10,1,1
4,0.609587,2,0,98,1,2,3,2
4,0.824879,1,0,59,1,12,1,1
4,0.840173,2,0,116,2,1,3,2
4,0.740718,2,0,60,1,12,1,1
4,0.463024,1,1,43,4,11,2,2
4,0.716023,1,0,137,4,3,1,1
4,0.798222,2,0,28,3,10,2,2
4,1.181403,1,0,126,3,4,3,2
4,0.644526,2,0,92,4,11,1,1
4,1.057482,2,0,104,1,2,3,2
4,0.710769,2,0,21,2,11,3,2
4,0.67255,2,0,106,1,2,2,2
4,0.646347,1,0,19,2,11,0,2
4,0.715526,1,0,81,3,11,1,1
4,0.541235,2,0,71,2,12,1,1
4,0.543028,2,0,51,1,9,1,1
4,0.592446,2,0,76,3,10,1,1
4,0.840593,2,0,3,1,9,2,2
4,1.342762,1,0,86,4,9,1,1
4,0.512167,2,0,53,1,10,1,1
4,1.017606,1,0,131,3,4,1,1
4,0.864605,2,0,33,3,11,0,2
4,0.596492,1,0,61,2,9,1,1
4,0.763455,2,0,20,2,11,1,1
4,0.612482,1,0,9,1,11,1,1
4,0.675226,2,0,87,4,9,1,1
4,0.855437,1,0,16,2,10,0,2
4,0.612233,1,0,89,4,10,1,1
4,0.683845,1,0,118,2,1,3,2
4,0.567706,2,0,1,1,9,3,2
4,0.664596,1,0,123,3,4,3,2
4,0.63673,1,0,110,2,1,1,1
4,1.002799,2,1,31,3,11,1,1
4,0.737125,1,0,100,1,2,1,1
4,0.796566,1,0,75,3,9,1,1
4,0.54713,1,0,13,2,9,1,1
4,0.564309,1,0,23,2,12,2,2
4,0.565954,1,0,65,2,10,1,1
4,0.563449,2,0,122,3,4,1,1
4,0.538755,1,0,111,2,1,1,1
4,1.308716,2,0,10,1,12,1,1
4,0.462859,1,0,74,3,9,1,1
4,0.539685,1,0,93,4,11,1,1
4,0.477621,1,0,29,3,10,0,2
4,0.641624,2,0,56,1,11,1,1
4,0.559894,1,0,50,1,9,1,1
4,0.495794,1,0,46,4,12,0,2
4,0.659332,1,0,141,4,3,2,2
4,0.488965,1,0,48,4,12,1,1
4,0.620265,2,0,115,2,1,2,2
4,0.754165,2,0,99,1,2,2,2
4,0.635299,2,0,17,2,10,2,2
4,0.498567,1,0,45,4,11,3,2
4,0.780421,2,0,120,2,1,2,2
4,0.603847,1,0,119,2,1,2,2
4,0.532877,1,0,32,3,11,3,2
4,0.646398,2,0,80,3,11,1,1
4,0.571654,1,0,52,1,10,1,1
4,0.684039,1,0,47,4,12,1,1
4,0.752086,2,0,37,4,9,1,1
4,0.600271,1,0,128,3,4,2,2
4,0.680007,1,0,40,4,10,3,2
4,0.491679,2,0,63,2,9,1,1
4,0.888615,2,0,112,2,1,3,2
4,0.556569,1,0,62,2,9,1,1
4,0.677624,2,0,38,4,9,0,2
4,0.665612,1,0,97,1,2,3,2
4,0.663005,2,0,18,2,10,0,2
4,0.507063,1,1,57,1,11,1,1
4,1.182163,2,0,2,1,9,0,2
4,0.510389,1,0,5,1,10,0,2
4,0.625415,1,0,77,3,10,1,1
4,0.807109,1,0,96,4,12,1,1
4,0.423218,1,0,27,3,9,1,1
4,0.476778,2,0,102,1,2,1,1
4,0.568207,1,0,82,3,12,1,1
4,0.369165,1,0,105,1,2,2,2
4,0.649353,2,0,24,2,12,0,2
4,0.471295,1,1,134,4,3,3,2
4,1.876672,2,0,39,4,9,2,2
4,0.504732,1,0,139,4,3,2,2
4,0.531643,2,0,95,4,12,1,1
4,0.501219,1,0,55,1,11,1,1
4,0.705226,2,0,26,3,9,1,1
4,0.716129,2,0,12,1,12,0,2
4,0.502266,2,0,73,3,9,1,1
4,0.545809,2,0,135,4,3,1,1
4,0.619478,2,0,85,4,9,1,1
4,0.52949,1,0,22,2,12,1,1
4,0.540279,2,0,7,1,11,1,1
4,0.686262,1,0,68,2,11,1,1
4,0.562438,2,0,66,2,10,1,1
4,0.810277,1,0,103,1,2,1,1
4,0.576937,1,0,54,1,10,1,1
4,0.576706,2,0,142,4,3,1,1
4,0.680962,1,0,49,1,9,1,1
4,0.476566,2,0,42,4,10,1,1
4,0.592204,1,0,78,3,10,1,1
4,0.840641,2,0,30,3,10,0,2
4,0.494172,1,0,125,3,4,2,2
4,0.473605,2,0,44,4,11,0,2
4,0.60574,2,0,107,1,2,1,1
4,0.525292,1,0,41,4,10,0,2
4,0.575337,2,0,90,4,10,1,1
4,0.527777,2,0,140,4,3,2,2
4,0.48188,1,0,144,4,3,3,2
4,0.61394,1,0,72,2,12,1,1
4,0.701354,2,0,109,2,1,1,1
4,0.552343,2,0,136,4,3,3,2
4,0.529507,2,1,108,1,2,2,2
4,0.587802,1,0,15,2,9,3,2
4,0.633854,1,0,113,2,1,2,2
4,0.536304,1,0,124,3,4,1,1
4,0.465718,1,0,133,4,3,1,1
4,0.565983,1,0,11,1,12,2,2
4,0.582652,2,0,94,4,12,1,1
4,1.157413,2,0,130,3,4,3,2
4,0.670699,1,0,101,1,2,3,2
4,0.811412,1,0,114,2,1,3,2
4,0.578315,1,0,91,4,11,1,1
4,0.705904,2,0,132,3,4,2,2
4,0.845256,2,0,83,3,12,1,1
4,0.52247,1,0,25,3,9,3,2
4,0.813109,2,0,34,3,12,1,1
4,0.490905,1,0,64,2,10,1,1
4,0.551769,2,0,14,2,9,1,1
4,0.744822,1,0,4,1,10,0,2
4,0.51437,2,0,117,2,1,1,1
4,0.597114,1,0,8,1,11,3,2
4,0.740247,2,0,70,2,12,1,1
4,0.711032,2,0,36,3,12,2,2
4,0.466295,1,0,138,4,3,3,2
4,0.454907,1,0,35,3,12,0,2
4,0.667906,1,0,6,1,10,1,1
4,0.416962,2,0,79,3,11,1,1
4,1.104294,1,0,82,3,12,1,1
4,0.699663,2,0,66,2,10,1,1
4,0.532595,2,0,12,1,12,0,2
4,0.623209,1,0,52,1,10,1,1
4,0.621773,2,0,143,4,3,2,2
4,0.492886,2,0,79,3,11,1,1
4,0.608111,1,0,131,3,4,1,1
4,0.487924,2,0,67,2,11,1,1
4,0.524812,2,0,39,4,9,2,2
4,0.503458,1,0,114,2,1,3,2
4,0.738991,1,0,78,3,10,1,1
4,0.589038,1,0,126,3,4,3,2
4,0.469649,1,1,24,2,12,0,2
4,0.626613,1,0,16,2,10,0,2
4,0.473801,2,0,1,1,9,3,2
4,0.605856,2,0,14,2,9,1,1
4,0.565956,2,0,92,4,11,1,1
4,0.823195,2,0,10,1,12,1,1
4,0.557446,1,0,27,3,9,1,1
4,0.590288,2,0,135,4,3,1,1
4,0.469819,1,0,50,1,9,1,1
4,0.555377,1,0,15,2,9,3,2
4,1.7656,1,0,54,1,10,1,1
4,0.526261,2,0,58,1,12,1,1
4,0.680243,2,1,4,1,10,0,2
4,0.875561,1,0,22,2,12,1,1
4,0.615884,1,0,113,2,1,2,2
4,0.558949,2,0,76,3,10,1,1
4,0.560703,2,0,85,4,9,1,1
4,0.49678,2,0,117,2,1,1,1
4,0.604329,2,0,21,2,11,3,2
4,0.428369,2,0,42,4,10,1,1
4,0.506173,1,0,62,2,9,1,1
4,0.429564,2,0,130,3,4,3,2
4,0.459719,2,0,30,3,10,0,2
4,0.456801,2,0,17,2,10,2,2
4,0.462309,1,0,41,4,10,0,2
4,0.642559,1,0,111,2,1,1,1
4,0.489326,2,0,36,3,12,2,2
4,0.524918,1,0,68,2,11,1,1
4,0.600403,2,0,53,1,10,1,1
4,0.591801,2,0,90,4,10,1,1
4,0.478817,1,0,100,1,2,1,1
4,0.690494,2,0,112,2,1,3,2
4,0.646674,2,0,7,1,11,1,1
4,0.60424,1,0,86,4,9,1,1
4,0.523563,1,0,93,4,11,1,1
4,0.501759,1,0,128,3,4,2,2
4,0.641577,1,0,118,2,1,3,2
4,0.623302,1,0,81,3,11,1,1
4,0.477381,1,0,29,3,10,0,2
4,0.593875,2,0,115,2,1,2,2
4,0.569296,2,0,56,1,11,1,1
4,0.521374,1,0,13,2,9,1,1
4,0.508026,2,1,96,4,12,1,1
4,0.655268,1,0,47,4,12,1,1
4,0.924466,2,0,136,4,3,3,2
4,0.607751,2,0,98,1,2,3,2
4,0.686786,2,0,120,2,1,2,2
4,0.578513,2,0,102,1,2,1,1
4,0.555306,2,0,3,1,9,2,2
4,0.47731,2,0,122,3,4,1,1
4,0.44151,2,0,73,3,9,1,1
4,0.407677,2,0,140,4,3,2,2
4,0.479069,1,0,49,1,9,1,1
4,0.387622,2,0,60,1,12,1,1
4,0.451356,1,0,119,2,1,2,2
4,0.576813,1,0,89,4,10,1,1
4,0.369034,2,1,11,1,12,2,2
4,0.601875,2,0,104,1,2,3,2
4,0.617204,1,0,23,2,12,2,2
4,0.496054,1,0,105,1,2,2,2
4,1.278608,1,0,72,2,12,1,1
4,0.5625,2,0,109,2,1,1,1
4,0.634266,2,0,87,4,9,1,1
4,0.480897,2,0,37,4,9,1,1
4,0.437118,2,0,38,4,9,0,2
4,0.452172,1,0,103,1,2,1,1
4,0.458151,1,0,8,1,11,3,2
4,0.503618,2,1,61,2,9,1,1
4,0.594907,1,0,91,4,11,1,1
4,0.706292,2,0,63,2,9,1,1
4,0.477254,1,0,59,1,12,1,1
4,0.665735,1,0,75,3,9,1,1
4,0.542984,1,0,123,3,4,3,2
4,0.384437,1,0,45,4,11,3,2
4,0.640175,2,0,44,4,11,0,2
4,0.462217,1,0,144,4,3,3,2
4,0.435357,1,0,5,1,10,0,2
4,0.681284,2,0,121,3,4,3,2
4,0.445248,1,0,125,3,4,2,2
4,0.529962,1,0,55,1,11,1,1
4,0.524444,2,0,33,3,11,0,2
4,0.438876,1,0,19,2,11,0,2
4,0.604591,2,0,2,1,9,0,2
4,0.500528,1,0,108,1,2,2,2
4,1.127321,1,0,133,4,3,1,1
4,0.561433,1,0,6,1,10,1,1
4,0.841738,1,0,65,2,10,1,1
4,0.583721,2,1,137,4,3,1,1
4,0.656188,2,0,99,1,2,2,2
4,0.702133,1,0,88,4,10,1,1
4,0.633481,2,0,26,3,9,1,1
4,0.599765,2,0,71,2,12,1,1
4,0.494643,2,0,132,3,4,2,2
4,0.346078,2,0,94,4,12,1,1
4,0.476188,1,0,110,2,1,1,1
4,0.40775,2,0,84,3,12,1,1
4,0.487903,1,1,69,2,11,1,1
4,0.612248,2,0,134,4,3,3,2
4,0.643083,1,0,64,2,10,1,1
4,0.952978,2,0,43,4,11,2,2
4,0.458669,1,0,124,3,4,1,1
4,0.4885,1,0,74,3,9,1,1
4,0.404063,1,0,101,1,2,3,2
4,0.667864,2,0,95,4,12,1,1
4,0.472851,1,1,107,1,2,1,1
4,0.621239,2,0,116,2,1,3,2
4,0.427168,2,0,57,1,11,1,1
4,0.586323,1,0,77,3,10,1,1
4,0.505688,2,0,129,3,4,2,2
4,0.460936,1,0,46,4,12,0,2
4,0.521759,1,0,97,1,2,3,2
4,0.48414,2,0,51,1,9,1,1
4,0.504918,1,0,25,3,9,3,2
4,0.363094,2,0,34,3,12,1,1
4,0.500507,1,0,141,4,3,2,2
4,0.487063,1,0,9,1,11,1,1
4,0.499025,1,0,32,3,11,3,2
4,0.462494,2,0,142,4,3,1,1
4,0.562064,1,0,35,3,12,0,2
4,0.540212,1,1,18,2,10,0,2
4,0.517322,2,0,106,1,2,2,2
4,0.49585,1,0,139,4,3,2,2
4,0.539283,2,0,80,3,11,1,1
4,0.710089,2,0,28,3,10,2,2
4,0.496693,1,0,138,4,3,3,2
4,0.556247,1,0,31,3,11,1,1
4,0.565003,2,0,70,2,12,1,1
4,0.605891,1,0,40,4,10,3,2
4,0.525334,2,0,127,3,4,1,1
4,0.448322,1,0,48,4,12,1,1
4,0.438009,2,0,83,3,12,1,1
4,0.628071,2,0,20,2,11,1,1
4,0.720523,1,0,75,3,9,1,1
4,0.824993,2,0,30,3,10,0,2
4,0.68049,2,0,134,4,3,3,2
4,0.508217,1,0,125,3,4,2,2
4,0.687398,1,0,141,4,3,2,2
4,0.651318,1,0,25,3,9,3,2
4,0.504472,1,0,77,3,10,1,1
4,0.764863,2,0,24,2,12,0,2
4,0.69419,1,0,55,1,11,1,1
4,0.633515,1,0,49,1,9,1,1
4,0.583934,1,0,8,1,11,3,2
4,0.639037,2,0,117,2,1,1,1
4,0.59101,1,0,144,4,3,3,2
4,0.686872,2,0,69,2,11,1,1
4,0.570526,1,0,78,3,10,1,1
4,0.531594,1,0,119,2,1,2,2
4,0.493373,1,0,9,1,11,1,1
4,0.689461,2,0,44,4,11,0,2
4,0.596983,2,0,14,2,9,1,1
4,0.571861,2,0,7,1,11,1,1
4,0.700823,1,0,96,4,12,1,1
4,0.62362,2,0,142,4,3,1,1
4,0.710031,2,0,94,4,12,1,1
4,0.593087,1,0,64,2,10,1,1
4,0.616942,2,0,56,1,11,1,1
4,0.887781,1,0,16,2,10,0,2
4,0.651237,1,0,19,2,11,0,2
4,0.665586,2,0,20,2,11,1,1
4,0.598341,2,0,95,4,12,1,1
4,0.797045,2,0,115,2,1,2,2
4,0.660688,2,0,34,3,12,1,1
4,0.633702,1,0,97,1,2,3,2
4,0.57577,1,0,88,4,10,1,1
4,0.576313,2,0,38,4,9,0,2
4,0.672036,1,0,123,3,4,3,2
4,0.725975,2,0,26,3,9,1,1
4,0.783487,2,0,102,1,2,1,1
4,0.687939,2,0,76,3,10,1,1
4,0.844122,2,0,21,2,11,3,2
4,0.738149,2,0,132,3,4,2,2
4,0.581357,2,0,84,3,12,1,1
4,0.78943,1,0,86,4,9,1,1
4,0.597129,2,0,58,1,12,1,1
4,0.740527,2,0,33,3,11,0,2
4,0.534183,2,0,90,4,10,1,1
4,0.479714,2,0,98,1,2,3,2
4,0.556178,1,0,15,2,9,3,2
4,0.533695,1,0,103,1,2,1,1
4,0.823685,2,0,130,3,4,3,2
4,0.597812,1,0,93,4,11,1,1
4,0.669631,2,0,104,1,2,3,2
4,0.531634,2,0,107,1,2,1,1
4,0.501547,1,0,5,1,10,0,2
4,0.464353,1,0,111,2,1,1,1
4,0.461,1,0,50,1,9,1,1
4,0.626159,1,0,137,4,3,1,1
4,0.496812,2,0,135,4,3,1,1
4,0.531501,2,0,3,1,9,2,2
4,0.566757,1,0,133,4,3,1,1
4,0.622806,2,0,106,1,2,2,2
4,0.597626,1,0,22,2,12,1,1
4,0.676848,1,0,81,3,11,1,1
4,0.472695,1,0,68,2,11,1,1
4,0.494085,1,0,139,4,3,2,2
4,0.601214,2,0,120,2,1,2,2
4,0.512624,2,0,92,4,11,1,1
4,0.507619,1,0,113,2,1,2,2
4,0.438867,1,0,105,1,2,2,2
4,0.636395,2,0,37,4,9,1,1
4,0.69085,1,0,124,3,4,1,1
4,0.59006,1,0,126,3,4,3,2
4,0.582954,1,0,100,1,2,1,1
4,0.600801,1,0,128,3,4,2,2
4,0.576462,2,0,87,4,9,1,1
4,0.537305,2,0,28,3,10,2,2
4,0.595095,2,0,67,2,11,1,1
4,0.481483,1,0,65,2,10,1,1
4,0.581645,1,0,89,4,10,1,1
4,0.453387,2,0,18,2,10,0,2
4,0.507148,2,0,136,4,3,3,2
4,0.574543,1,0,72,2,12,1,1
4,0.703298,2,0,63,2,9,1,1
4,0.498306,2,0,85,4,9,1,1
4,0.476922,2,0,53,1,10,1,1
4,0.56177,1,0,29,3,10,0,2
4,0.665212,2,0,12,1,12,0,2
4,0.862497,2,0,43,4,11,2,2
4,0.634989,1,0,108,1,2,2,2
4,0.633813,1,0,6,1,10,1,1
4,0.647979,1,0,52,1,10,1,1
4,0.765781,1,0,47,4,12,1,1
4,0.694227,2,0,121,3,4,3,2
4,0.46552,2,0,51,1,9,1,1
4,0.542237,1,0,82,3,12,1,1
4,0.489245,2,0,80,3,11,1,1
4,0.549194,2,0,71,2,12,1,1
4,0.646668,1,0,23,2,12,2,2
4,0.563869,2,0,143,4,3,2,2
4,0.691937,2,0,10,1,12,1,1
4,0.592394,2,0,36,3,12,2,2
4,0.464514,1,0,114,2,1,3,2
4,0.612937,1,0,62,2,9,1,1
4,0.57968,1,0,48,4,12,1,1
4,0.55508,2,0,2,1,9,0,2
4,0.532631,2,0,1,1,9,3,2
4,0.710492,1,0,54,1,10,1,1
4,0.520561,1,0,101,1,2,3,2
4,0.523799,1,0,40,4,10,3,2
4,0.790366,2,0,127,3,4,1,1
4,0.446187,1,0,27,3,9,1,1
4,0.587811,2,0,122,3,4,1,1
4,0.62763,2,0,42,4,10,1,1
4,0.529013,1,0,32,3,11,3,2
4,0.515735,1,0,74,3,9,1,1
4,0.478779,2,0,140,4,3,2,2
4,0.570811,2,0,83,3,12,1,1
4,0.562811,1,0,91,4,11,1,1
4,0.509451,2,0,57,1,11,1,1
4,0.552297,2,0,73,3,9,1,1
4,0.617668,1,0,110,2,1,1,1
4,0.536291,1,0,31,3,11,1,1
4,0.498644,1,0,35,3,12,0,2
4,0.589874,2,0,39,4,9,2,2
4,0.582542,1,0,4,1,10,0,2
4,0.670455,2,0,79,3,11,1,1
4,0.971217,2,0,116,2,1,3,2
4,0.523728,2,0,70,2,12,1,1
4,0.549613,1,0,131,3,4,1,1
4,0.487583,1,0,11,1,12,2,2
4,0.442949,1,0,13,2,9,1,1
4,0.456813,1,0,59,1,12,1,1
4,0.597772,2,0,60,1,12,1,1
4,0.42893,1,0,138,4,3,3,2
4,0.491474,1,0,46,4,12,0,2
4,0.454961,2,0,129,3,4,2,2
4,0.596564,2,0,66,2,10,1,1
4,0.499635,2,0,17,2,10,2,2
4,0.39939,1,0,45,4,11,3,2
4,0.758162,2,0,109,2,1,1,1
4,0.456601,1,0,41,4,10,0,2
4,0.478025,1,0,118,2,1,3,2
4,0.409422,2,0,112,2,1,3,2
4,0.377332,1,1,99,1,2,2,2
4,0.55405,1,0,61,2,9,1,1
5,2.577117,1,0,20,2,11,1,1
5,2.401206,1,0,26,3,9,1,1
5,0.992711,1,0,51,1,9,1,1
5,1.464729,2,0,91,4,11,0,2
5,0.941576,1,0,21,2,11,1,1
5,0.711541,2,0,73,3,9,1,1
5,0.546795,2,0,54,1,10,3,2
5,0.747857,1,0,105,1,2,3,2
5,0.985023,1,0,89,4,10,3,2
5,0.819676,1,0,88,4,10,1,1
5,0.937993,1,0,107,1,2,3,2
5,1.044707,2,0,23,2,12,1,1
5,0.626584,1,0,46,4,12,1,1
5,1.032386,2,0,19,2,11,1,1
5,0.780757,2,0,32,3,11,1,1
5,0.981449,1,0,100,1,2,3,2
5,0.741193,2,0,118,2,1,2,2
5,0.429996,2,0,106,1,2,2,2
5,1.002561,1,0,65,2,10,0,2
5,0.825918,1,0,17,2,10,1,1
5,0.99715,2,0,101,1,2,3,2
5,0.68194,2,0,52,1,10,3,2
5,1.025331,1,0,34,3,12,1,1
5,0.815106,1,0,40,4,10,1,1
5,0.854277,1,0,72,2,12,1,1
5,0.723767,2,0,126,3,4,1,1
5,0.431154,2,0,125,3,4,2,2
5,0.959652,1,0,141,4,3,3,2
5,0.478669,2,0,55,1,11,2,2
5,1.140486,2,0,22,2,12,1,1
5,1.069391,2,0,61,2,9,1,1
5,0.618254,2,0,13,2,9,1,1
5,1.025934,1,1,66,2,10,3,2
5,0.687825,1,0,36,3,12,1,1
5,0.627106,1,0,124,3,4,1,1
5,1.442699,2,0,119,2,1,1,1
5,0.992466,1,0,49,1,9,0,2
5,2.176205,2,0,2,1,9,1,1
5,0.768084,2,0,93,4,11,1,1
5,0.616183,2,0,10,1,12,1,1
5,1.269358,1,0,86,4,9,2,2
5,0.859999,1,0,45,4,11,1,1
5,0.776243,1,0,130,3,4,3,2
5,1.273047,2,0,97,1,2,2,2
5,1.044527,1,0,134,4,3,2,2
5,1.266065,2,0,102,1,2,1,1
5,1.414119,2,0,135,4,3,1,1
5,0.708838,1,0,122,3,4,3,2
5,0.791441,1,0,8,1,11,1,1
5,0.712411,2,0,11,1,12,1,1
5,1.051188,1,0,138,4,3,2,2
5,0.824233,1,0,3,1,9,1,1
5,0.542997,1,0,76,3,10,1,1
5,0.647903,2,0,110,2,1,3,2
5,1.085251,2,0,78,3,10,2,2
5,0.866857,2,0,75,3,9,0,2
5,0.679776,1,0,15,2,9,1,1
5,0.96277,2,0,117,2,1,2,2
5,0.899681,2,0,56,1,11,0,2
5,0.631497,2,0,31,3,11,1,1
5,1.381142,1,0,50,1,9,1,1
5,0.884353,1,0,9,1,11,1,1
5,0.535437,2,0,18,2,10,1,1
5,0.521095,2,0,85,4,9,0,2
5,0.963563,2,0,83,3,12,1,1
5,0.556313,2,0,57,1,11,1,1
5,0.99654,1,0,108,1,2,2,2
5,2.44114,1,0,6,1,10,1,1
5,0.677937,1,0,48,4,12,1,1
5,1.449804,2,0,132,3,4,2,2
5,0.807207,1,0,38,4,9,1,1
5,0.790724,1,0,60,1,12,0,2
5,1.61102,1,0,111,2,1,3,2
5,0.850468,2,0,67,2,11,0,2
5,0.46372,1,1,39,4,9,1,1
5,0.812408,2,0,140,4,3,2,2
5,0.859917,1,0,79,3,11,3,2
5,0.81818,2,0,43,4,11,1,1
5,1.017022,1,0,104,1,2,2,2
5,0.855137,2,0,133,4,3,1,1
5,1.386844,1,0,109,2,1,3,2
5,1.153157,2,0,96,4,12,3,2
5,0.708485,2,0,123,3,4,3,2
5,1.343739,1,0,120,2,1,1,1
5,0.658063,1,0,95,4,12,0,2
5,1.022331,2,0,33,3,11,1,1
5,0.597241,2,0,136,4,3,3,2
5,0.764099,1,0,87,4,9,0,2
5,1.003509,2,0,139,4,3,2,2
5,0.745931,2,0,24,2,12,1,1
5,0.795925,2,0,129,3,4,1,1
5,0.860537,1,0,63,2,9,2,2
5,0.937803,1,0,35,3,12,1,1
5,1.22346,1,0,68,2,11,2,2
5,0.589994,2,0,59,1,12,0,2
5,0.806323,1,0,27,3,9,1,1
5,0.844961,1,0,137,4,3,1,1
5,0.602182,1,0,70,2,12,0,2
5,0.594058,1,0,80,3,11,0,2
5,0.568977,1,0,12,1,12,1,1
5,0.564356,2,0,62,2,9,3,2
5,1.024609,2,0,44,4,11,1,1
5,0.655052,1,0,84,3,12,1,1
5,0.715405,1,0,28,3,10,1,1
5,1.006259,1,0,142,4,3,3,2
5,0.588981,2,0,47,4,12,1,1
5,0.748668,1,0,103,1,2,1,1
5,0.965772,1,0,92,4,11,2,2
5,0.672703,1,0,81,3,11,0,2
5,0.881642,1,0,58,1,12,2,2
5,1.113949,1,0,121,3,4,1,1
5,1.069235,2,0,30,3,10,1,1
5,0.568739,2,0,25,3,9,1,1
5,0.839283,1,0,82,3,12,2,2
5,1.161613,2,0,74,3,9,0,2
5,1.290059,1,0,77,3,10,3,2
5,0.71945,2,0,69,2,11,1,1
5,0.610398,1,0,144,4,3,1,1
5,0.513157,2,0,116,2,1,1,1
5,0.483265,2,0,53,1,10,1,1
5,1.039559,2,0,29,3,10,1,1
5,0.659799,1,1,99,1,2,1,1
5,0.689535,1,0,127,3,4,3,2
5,0.648551,2,0,112,2,1,2,2
5,0.949919,1,0,128,3,4,2,2
5,1.125872,2,0,41,4,10,1,1
5,1.023592,2,0,5,1,10,1,1
5,1.278221,1,0,113,2,1,1,1
5,0.675222,1,0,4,1,10,1,1
5,0.783422,2,0,37,4,9,1,1
5,1.254977,1,0,16,2,10,1,1
5,0.644321,2,0,114,2,1,2,2
5,1.841272,1,0,14,2,9,1,1
5,1.101858,1,0,131,3,4,2,2
5,0.662927,2,0,7,1,11,1,1
5,1.019438,2,0,90,4,10,1,1
5,0.93879,2,0,1,1,9,1,1
5,0.604198,2,0,71,2,12,0,2
5,0.819807,1,0,98,1,2,1,1
5,0.712959,1,0,64,2,10,1,1
5,1.043491,2,0,143,4,3,3,2
5,0.544999,1,0,42,4,10,1,1
5,1.715302,1,0,115,2,1,3,2
5,0.662226,1,0,94,4,12,1,1
5,1.470708,1,0,81,3,11,0,2
5,0.915924,2,0,59,1,12,0,2
5,0.87062,1,0,17,2,10,1,1
5,0.609087,2,0,92,4,11,2,2
5,1.375252,2,0,78,3,10,2,2
5,0.869805,2,0,125,3,4,2,2
5,0.597195,2,0,106,1,2,2,2
5,0.699952,2,0,75,3,9,0,2
5,0.961457,2,0,112,2,1,2,2
5,0.617942,1,0,136,4,3,3,2
5,0.772679,1,0,70,2,12,0,2
5,0.597151,1,0,103,1,2,1,1
5,0.620145,1,0,6,1,10,1,1
5,0.400372,2,0,86,4,9,2,2
5,0.655749,2,0,130,3,4,3,2
5,0.732429,1,0,20,2,11,1,1
5,0.494209,2,0,74,3,9,0,2
5,0.874567,2,0,111,2,1,3,2
5,0.742498,2,0,43,4,11,1,1
5,0.7761,1,0,144,4,3,1,1
5,0.711894,1,0,42,4,10,1,1
5,0.538702,2,0,18,2,10,1,1
5,0.971849,2,0,53,1,10,1,1
5,0.508062,2,0,83,3,12,1,1
5,1.119253,2,0,119,2,1,1,1
5,0.850097,1,0,97,1,2,2,2
5,1.088672,1,0,49,1,9,0,2
5,0.752695,1,0,58,1,12,2,2
5,0.711294,1,0,118,2,1,2,2
5,0.712779,1,0,16,2,10,1,1
5,0.617637,2,0,56,1,11,0,2
5,0.505052,2,0,39,4,9,1,1
5,0.716224,1,0,34,3,12,1,1
5,1.206808,1,0,40,4,10,1,1
5,0.773773,2,0,23,2,12,1,1
5,0.685893,2,0,13,2,9,1,1
5,0.682024,1,0,48,4,12,1,1
5,0.749554,1,1,69,2,11,1,1
5,0.621826,2,0,85,4,9,0,2
5,0.764181,1,0,28,3,10,1,1
5,0.691821,1,0,4,1,10,1,1
5,2.103005,2,0,107,1,2,3,2
5,0.738316,1,0,45,4,11,1,1
5,0.77018,1,0,104,1,2,2,2
5,0.546975,1,0,80,3,11,0,2
5,0.859413,2,0,116,2,1,1,1
5,0.650021,2,0,108,1,2,2,2
5,0.566737,1,0,3,1,9,1,1
5,1.318314,2,0,73,3,9,1,1
5,0.552517,2,0,129,3,4,1,1
5,0.705585,2,0,7,1,11,1,1
5,1.19565,1,0,46,4,12,1,1
5,0.602894,1,0,66,2,10,3,2
5,0.434332,2,0,126,3,4,1,1
5,1.143481,2,0,71,2,12,0,2
5,0.492469,2,0,128,3,4,2,2
5,0.521561,2,0,25,3,9,1,1
5,0.727174,1,0,63,2,9,2,2
5,1.103244,2,0,82,3,12,2,2
5,0.578894,2,0,54,1,10,3,2
5,0.475958,2,0,138,4,3,2,2
5,0.536968,1,0,26,3,9,1,1
5,0.561885,2,1,8,1,11,1,1
5,1.290799,1,0,87,4,9,0,2
5,0.654865,1,0,51,1,9,1,1
5,0.56345,1,0,115,2,1,3,2
5,0.762156,1,0,100,1,2,3,2
5,0.817688,2,0,5,1,10,1,1
5,0.592002,1,0,72,2,12,1,1
5,0.77527,2,0,114,2,1,2,2
5,0.791055,1,0,96,4,12,3,2
5,0.845761,1,0,65,2,10,0,2
5,1.082118,2,0,31,3,11,1,1
5,1.270468,2,0,62,2,9,3,2
5,0.878885,2,0,134,4,3,2,2
5,0.722806,2,0,133,4,3,1,1
5,0.996628,1,0,15,2,9,1,1
5,1.299266,2,0,67,2,11,0,2
5,0.702374,1,0,76,3,10,1,1
5,1.233161,2,0,93,4,11,1,1
5,0.766587,2,0,19,2,11,1,1
5,0.758701,1,0,137,4,3,1,1
5,0.615125,2,0,1,1,9,1,1
5,0.78126,1,0,124,3,4,1,1
5,0.619966,1,0,84,3,12,1,1
5,0.791299,1,0,127,3,4,3,2
5,0.610093,2,0,33,3,11,1,1
5,0.529013,2,0,47,4,12,1,1
5,0.554089,1,0,113,2,1,1,1
5,0.899165,2,0,91,4,11,0,2
5,0.899295,1,0,52,1,10,3,2
5,1.265459,1,0,109,2,1,3,2
5,1.150802,2,0,102,1,2,1,1
5,0.962895,1,0,68,2,11,2,2
5,1.355346,2,0,135,4,3,1,1
5,0.579603,2,0,140,4,3,2,2
5,0.595305,2,0,132,3,4,2,2
5,0.825168,2,0,77,3,10,3,2
5,1.172036,2,0,29,3,10,1,1
5,1.077399,1,0,121,3,4,1,1
5,0.929919,2,0,79,3,11,3,2
5,0.917101,1,0,36,3,12,1,1
5,1.064174,1,0,38,4,9,1,1
5,1.467495,2,0,90,4,10,1,1
5,0.663922,1,0,98,1,2,1,1
5,1.235682,1,0,60,1,12,0,2
5,0.65785,2,0,44,4,11,1,1
5,0.829389,1,0,110,2,1,3,2
5,0.705333,2,0,37,4,9,1,1
5,1.164809,2,0,143,4,3,3,2
5,1.077661,1,0,95,4,12,0,2
5,0.681583,1,0,120,2,1,1,1
5,0.68479,1,0,142,4,3,3,2
5,0.776325,1,0,12,1,12,1,1
5,0.653662,2,0,99,1,2,1,1
5,0.698913,1,0,35,3,12,1,1
5,0.685914,2,0,2,1,9,1,1
5,0.625131,2,1,64,2,10,1,1
5,1.023348,2,0,11,1,12,1,1
5,1.205149,1,0,101,1,2,3,2
5,0.734709,1,0,122,3,4,3,2
5,1.14194,1,0,105,1,2,3,2
5,0.671673,1,0,9,1,11,1,1
5,0.748253,2,0,10,1,12,1,1
5,1.101181,2,0,30,3,10,1,1
5,0.807525,1,0,88,4,10,1,1
5,0.815505,1,0,94,4,12,1,1
5,0.474109,2,0,139,4,3,2,2
5,0.844637,2,0,24,2,12,1,1
5,1.473972,1,0,131,3,4,2,2
5,1.533254,1,0,50,1,9,1,1
5,0.87016,1,0,14,2,9,1,1
5,0.981147,1,0,55,1,11,2,2
5,0.630132,1,0,27,3,9,1,1
5,0.738655,2,0,22,2,12,1,1
5,0.876206,1,0,21,2,11,1,1
5,1.714768,2,0,141,4,3,3,2
5,0.689438,1,0,89,4,10,3,2
5,1.082231,2,0,57,1,11,1,1
5,1.005156,2,0,117,2,1,2,2
5,0.770994,2,0,32,3,11,1,1
5,1.027508,2,0,41,4,10,1,1
5,0.872368,1,0,123,3,4,3,2
5,0.530185,2,0,61,2,9,1,1
5,1.298113,2,0,97,1,2,2,2
5,0.661092,1,0,17,2,10,1,1
5,1.033986,1,0,89,4,10,3,2
5,0.62962,1,0,128,3,4,2,2
5,0.626783,1,0,76,3,10,1,1
5,0.793065,2,0,22,2,12,1,1
5,0.962795,2,0,78,3,10,2,2
5,1.235736,1,0,52,1,10,3,2
5,0.891464,2,0,56,1,11,0,2
5,0.982818,2,0,7,1,11,1,1
5,0.694427,2,0,24,2,12,1,1
5,0.961072,2,0,31,3,11,1,1
5,1.426053,1,0,50,1,9,1,1
5,0.952244,2,0,102,1,2,1,1
5,0.784435,1,0,125,3,4,2,2
5,0.753175,1,0,77,3,10,3,2
5,0.503764,2,0,101,1,2,3,2
5,0.778777,2,0,63,2,9,2,2
5,1.539299,1,0,100,1,2,3,2
5,0.557072,2,0,5,1,10,1,1
5,0.662094,1,0,81,3,11,0,2
5,0.634017,1,0,40,4,10,1,1
5,0.535518,2,0,18,2,10,1,1
5,0.737014,2,0,119,2,1,1,1
5,0.72956,2,0,25,3,9,1,1
5,0.611453,2,0,127,3,4,3,2
5,0.777426,1,0,104,1,2,2,2
5,0.938104,2,0,73,3,9,1,1
5,1.259336,2,0,116,2,1,1,1
5,0.691332,1,0,62,2,9,3,2
5,0.682222,1,0,98,1,2,1,1
5,0.893165,2,0,23,2,12,1,1
5,0.537325,1,0,26,3,9,1,1
5,1.001708,2,0,133,4,3,1,1
5,0.54346,2,0,68,2,11,2,2
5,0.516394,2,0,79,3,11,3,2
5,0.844461,2,0,29,3,10,1,1
5,0.520815,2,0,135,4,3,1,1
5,0.674242,2,0,122,3,4,3,2
5,0.791936,2,0,93,4,11,1,1
5,0.895104,2,0,30,3,10,1,1
5,0.968065,1,0,108,1,2,2,2
5,0.786454,1,0,84,3,12,1,1
5,0.682263,2,0,43,4,11,1,1
5,0.613557,1,0,21,2,11,1,1
5,1.107964,1,0,49,1,9,0,2
5,0.846729,2,0,1,1,9,1,1
5,0.571616,2,0,57,1,11,1,1
5,0.871645,1,0,115,2,1,3,2
5,0.600792,1,0,137,4,3,1,1
5,0.767454,1,0,124,3,4,1,1
5,0.719165,1,0,4,1,10,1,1
5,0.617341,1,0,42,4,10,1,1
5,0.791691,1,0,95,4,12,0,2
5,0.607033,1,0,38,4,9,1,1
5,0.637598,1,0,46,4,12,1,1
5,0.539113,1,0,88,4,10,1,1
5,0.468678,1,0,6,1,10,1,1
5,0.543503,1,0,82,3,12,2,2
5,0.905065,2,0,44,4,11,1,1
5,0.475748,1,0,60,1,12,0,2
5,0.919497,1,0,8,1,11,1,1
5,0.511875,2,0,111,2,1,3,2
5,1.066297,2,0,32,3,11,1,1
5,0.629992,1,0,65,2,10,0,2
5,1.187312,2,0,67,2,11,0,2
5,1.010964,2,0,129,3,4,1,1
5,0.977225,1,0,87,4,9,0,2
5,0.744978,1,0,113,2,1,1,1
5,0.557154,2,0,58,1,12,2,2
5,0.496302,2,0,92,4,11,2,2
5,1.045563,2,0,13,2,9,1,1
5,1.747883,1,0,112,2,1,2,2
5,0.957017,1,0,48,4,12,1,1
5,0.605568,2,0,47,4,12,1,1
5,0.903736,1,0,105,1,2,3,2
5,0.543083,2,0,114,2,1,2,2
5,0.525783,2,0,55,1,11,2,2
5,0.980831,1,0,107,1,2,3,2
5,0.470523,2,0,59,1,12,0,2
5,0.682447,2,0,53,1,10,1,1
5,0.917748,1,0,36,3,12,1,1
5,0.760685,2,0,83,3,12,1,1
5,0.720814,2,0,74,3,9,0,2
5,0.597169,2,0,118,2,1,2,2
5,0.69926,2,0,143,4,3,3,2
5,0.773615,1,0,121,3,4,1,1
5,0.718042,1,0,120,2,1,1,1
5,1.399912,2,0,39,4,9,1,1
5,0.726585,2,0,2,1,9,1,1
5,0.565883,2,0,41,4,10,1,1
5,0.549177,2,0,10,1,12,1,1
5,1.273173,2,0,106,1,2,2,2
5,1.175841,2,0,90,4,10,1,1
5,0.552183,2,0,139,4,3,2,2
5,0.481228,1,0,45,4,11,1,1
5,1.092206,1,0,28,3,10,1,1
5,1.087891,2,0,75,3,9,0,2
5,0.59471,2,0,33,3,11,1,1
5,0.705243,2,0,130,3,4,3,2
5,0.692293,1,0,15,2,9,1,1
5,0.607493,2,0,11,1,12,1,1
5,1.077318,1,0,103,1,2,1,1
5,0.745234,1,0,131,3,4,2,2
5,0.560839,1,0,109,2,1,3,2
5,0.844805,1,0,86,4,9,2,2
5,0.69734,1,0,16,2,10,1,1
5,0.787762,2,0,91,4,11,0,2
5,0.715253,2,0,85,4,9,0,2
5,0.530014,2,0,132,3,4,2,2
5,0.605766,2,0,19,2,11,1,1
5,0.619848,1,0,9,1,11,1,1
5,0.641671,2,0,61,2,9,1,1
5,1.16167,1,0,110,2,1,3,2
5,0.72129,1,0,14,2,9,1,1
5,0.80375,1,0,70,2,12,0,2
5,0.694779,2,0,54,1,10,3,2
5,1.411675,2,0,66,2,10,3,2
5,1.106992,1,0,117,2,1,2,2
5,0.547414,1,0,34,3,12,1,1
5,0.611475,1,0,72,2,12,1,1
5,1.082466,1,0,20,2,11,1,1
5,0.664995,2,0,140,4,3,2,2
5,0.735611,1,0,51,1,9,1,1
5,0.912198,1,0,144,4,3,1,1
5,0.99437,1,0,27,3,9,1,1
5,0.481621,2,0,123,3,4,3,2
5,0.740618,1,0,12,1,12,1,1
5,0.646439,2,0,69,2,11,1,1
5,0.546112,2,0,126,3,4,1,1
5,0.531002,2,0,99,1,2,1,1
5,0.809704,1,0,141,4,3,3,2
5,0.689511,1,0,3,1,9,1,1
5,1.188859,1,0,35,3,12,1,1
5,0.54826,2,0,136,4,3,3,2
5,0.988824,2,0,37,4,9,1,1
5,0.547028,1,0,142,4,3,3,2
5,1.368457,1,0,64,2,10,1,1
5,0.672196,1,0,80,3,11,0,2
5,0.769191,2,0,138,4,3,2,2
5,0.660665,1,0,96,4,12,3,2
5,0.610804,1,0,94,4,12,1,1
5,1.024407,2,0,71,2,12,0,2
5,0.733236,1,0,134,4,3,2,2
6,1.900841,2,0,14,2,9,2,2
6,1.231483,1,0,120,2,1,1,1
6,1.261584,2,0,32,3,11,0,2
6,0.898001,1,0,118,2,1,2,2
6,0.973476,2,0,19,2,11,0,2
6,0.837945,2,0,39,4,9,0,2
6,1.396025,1,0,113,2,1,3,2
6,1.059093,1,0,13,2,9,0,2
6,0.680214,2,0,45,4,11,1,1
6,1.020482,1,0,75,3,9,1,1
6,1.035196,2,0,11,1,12,2,2
6,0.776148,1,0,23,2,12,2,2
6,1.432041,2,0,76,3,10,1,1
6,0.861608,1,0,131,3,4,3,2
6,0.906992,2,1,47,4,12,0,2
6,0.917147,1,0,70,2,12,1,1
6,1.040032,2,1,15,2,9,0,2
6,1.165333,2,0,59,1,12,1,1
6,0.742249,1,0,93,4,11,1,1
6,0.887697,2,0,24,2,12,1,1
6,0.955963,1,0,107,1,2,2,2
6,0.853371,2,0,138,4,3,2,2
6,0.826709,1,0,108,1,2,3,2
6,0.729545,1,0,44,4,11,3,2
6,0.611204,1,0,66,2,10,1,1
6,0.570134,2,0,21,2,11,3,2
6,0.642184,1,0,42,4,10,0,2
6,0.711867,2,0,144,4,3,2,2
6,0.657316,1,0,129,3,4,3,2
6,0.535554,2,0,53,1,10,1,1
6,0.561124,1,1,135,4,3,1,1
6,0.810332,2,0,1,1,9,3,2
6,1.847675,2,0,25,3,9,2,2
6,1.028873,1,0,132,3,4,3,2
6,0.619516,2,0,2,1,9,3,2
6,1.770136,2,0,124,3,4,2,2
6,0.699,2,0,133,4,3,3,2
6,0.613599,1,0,104,1,2,2,2
6,1.028767,1,0,16,2,10,1,1
6,0.761481,1,0,10,1,12,0,2
6,0.633672,2,0,67,2,11,1,1
6,0.751586,2,0,125,3,4,2,2
6,0.624666,1,1,54,1,10,1,1
6,1.990181,1,0,96,4,12,1,1
6,1.222567,1,0,58,1,12,1,1
6,0.733274,1,0,63,2,9,1,1
6,0.894996,1,0,112,2,1,2,2
6,0.857733,1,1,103,1,2,1,1
6,0.887558,1,0,61,2,9,1,1
6,0.674702,2,0,82,3,12,1,1
6,0.863475,1,1,50,1,9,1,1
6,1.659809,2,0,97,1,2,2,2
6,0.696347,1,0,5,1,10,1,1
6,1.170312,1,0,136,4,3,3,2
6,1.251926,2,0,20,2,11,1,1
6,1.112999,1,0,64,2,10,1,1
6,0.908375,2,0,30,3,10,0,2
6,0.646847,2,0,48,4,12,0,2
6,1.131847,1,0,143,4,3,1,1
6,0.725308,1,0,31,3,11,1,1
6,0.790981,1,0,123,3,4,2,2
6,0.687446,2,0,94,4,12,1,1
6,0.58771,2,0,119,2,1,3,2
6,0.699632,1,1,114,2,1,3,2
6,0.894157,2,0,38,4,9,1,1
6,0.929602,2,0,106,1,2,1,1
6,0.69879,1,0,43,4,11,1,1
6,1.15008,1,0,81,3,11,1,1
6,0.837866,1,0,52,1,10,1,1
6,0.788826,2,0,78,3,10,1,1
6,1.005189,2,0,3,1,9,1,1
6,0.58023,2,0,110,2,1,3,2
6,1.719791,1,0,35,3,12,1,1
6,0.978037,1,0,26,3,9,0,2
6,0.672761,2,0,56,1,11,1,1
6,0.700738,1,0,83,3,12,1,1
6,0.752578,1,0,49,1,9,1,1
6,0.713138,1,0,87,4,9,1,1
6,0.73939,1,0,139,4,3,2,2
6,0.686173,1,0,85,4,9,1,1
6,0.577503,2,0,91,4,11,1,1
6,0.77776,2,0,140,4,3,2,2
6,1.20121,1,0,40,4,10,1,1
6,0.591599,1,0,7,1,11,2,2
6,0.639689,2,0,92,4,11,1,1
6,0.629751,1,0,22,2,12,1,1
6,0.53169,1,0,89,4,10,1,1
6,0.909528,2,0,115,2,1,1,1
6,0.672134,1,1,72,2,12,1,1
6,1.845595,2,0,99,1,2,3,2
6,0.82575,2,0,71,2,12,1,1
6,0.689316,2,0,95,4,12,1,1
6,0.772692,2,0,6,1,10,1,1
6,0.645916,1,0,102,1,2,1,1
6,0.586655,1,0,18,2,10,0,2
6,0.58626,2,0,141,4,3,1,1
6,0.627297,1,0,98,1,2,2,2
6,0.640592,2,0,128,3,4,1,1
6,0.574856,2,0,69,2,11,1,1
6,0.591309,2,0,65,2,10,1,1
6,0.631213,1,0,142,4,3,3,2
6,0.901153,2,0,88,4,10,1,1
6,0.512985,2,0,126,3,4,2,2
6,0.995544,1,0,90,4,10,1,1
6,1.226802,2,1,60,1,12,1,1
6,1.096225,1,0,27,3,9,0,2
6,0.74777,1,0,134,4,3,1,1
6,0.636232,1,0,111,2,1,1,1
6,0.58619,1,0,130,3,4,1,1
6,1.547067,1,0,36,3,12,3,2
6,1.212125,1,0,79,3,11,1,1
6,0.60221,1,0,12,1,12,0,2
6,0.625479,1,0,137,4,3,3,2
6,0.391903,1,1,17,2,10,3,2
6,0.776017,1,0,9,1,11,1,1
6,0.728114,1,0,4,1,10,0,2
6,0.657493,2,0,28,3,10,1,1
6,1.247069,2,0,8,1,11,0,2
6,0.931715,1,0,117,2,1,2,2
6,0.766614,2,0,86,4,9,1,1
6,0.518042,2,0,68,2,11,1,1
6,0.896397,1,0,57,1,11,1,1
6,0.563616,2,0,73,3,9,1,1
6,0.988213,2,0,41,4,10,2,2
6,0.524326,2,0,77,3,10,1,1
6,0.550402,2,0,37,4,9,2,2
6,0.783822,1,0,80,3,11,1,1
6,0.864043,1,1,34,3,12,1,1
6,0.636104,2,0,127,3,4,1,1
6,0.746205,2,0,121,3,4,3,2
6,0.529293,2,0,116,2,1,2,2
6,0.507077,2,0,55,1,11,1,1
6,0.84013,2,0,101,1,2,3,2
6,0.653407,2,1,105,1,2,1,1
6,1.467145,2,0,100,1,2,3,2
6,0.576384,1,0,46,4,12,3,2
6,0.504775,1,0,62,2,9,1,1
6,0.876679,2,0,29,3,10,2,2
6,0.592648,2,1,51,1,9,1,1
6,1.183914,2,0,74,3,9,1,1
6,1.207787,2,0,109,2,1,1,1
6,0.549946,1,0,33,3,11,3,2
6,0.574631,1,0,122,3,4,1,1
6,0.942002,1,0,84,3,12,1,1
6,0.665005,2,0,32,3,11,0,2
6,0.893591,1,0,42,4,10,0,2
6,0.55862,2,0,11,1,12,2,2
6,0.496193,1,0,47,4,12,0,2
6,0.747088,1,0,49,1,9,1,1
6,0.788124,2,0,106,1,2,1,1
6,0.787135,2,0,59,1,12,1,1
6,0.658188,1,0,85,4,9,1,1
6,0.607959,1,0,22,2,12,1,1
6,0.702809,2,0,141,4,3,1,1
6,0.666701,1,0,51,1,9,1,1
6,0.669999,1,0,89,4,10,1,1
6,0.531429,2,0,6,1,10,1,1
6,0.699947,1,0,112,2,1,2,2
6,0.624365,2,0,82,3,12,1,1
6,0.501954,2,0,116,2,1,2,2
6,0.504971,1,0,118,2,1,2,2
6,0.788388,1,0,87,4,9,1,1
6,0.716839,2,0,37,4,9,2,2
6,0.750503,2,0,3,1,9,1,1
6,0.848709,2,1,61,2,9,1,1
6,0.709604,1,0,134,4,3,1,1
6,0.865143,1,0,143,4,3,1,1
6,0.678015,1,0,131,3,4,3,2
6,0.576977,1,0,104,1,2,2,2
6,0.705589,2,1,123,3,4,2,2
6,0.756992,2,0,109,2,1,1,1
6,0.670423,1,0,40,4,10,1,1
6,1.002864,2,0,45,4,11,1,1
6,0.657884,2,0,2,1,9,3,2
6,0.567429,2,0,50,1,9,1,1
6,0.631531,2,0,100,1,2,3,2
6,0.773469,1,0,33,3,11,3,2
6,0.693392,1,0,63,2,9,1,1
6,0.617177,1,0,44,4,11,3,2
6,0.623211,2,0,21,2,11,3,2
6,0.733886,1,0,7,1,11,2,2
6,1.19074,2,0,138,4,3,2,2
6,0.88741,1,0,58,1,12,1,1
6,0.635212,1,0,83,3,12,1,1
6,0.712476,1,0,113,2,1,3,2
6,0.627604,1,0,137,4,3,3,2
6,0.545259,1,0,16,2,10,1,1
6,0.586281,1,0,60,1,12,1,1
6,0.730032,2,0,68,2,11,1,1
6,0.857875,2,0,25,3,9,2,2
6,0.669643,2,0,103,1,2,1,1
6,1.010953,2,0,88,4,10,1,1
6,0.728848,1,0,10,1,12,0,2
6,1.578427,2,0,74,3,9,1,1
6,0.666928,2,0,128,3,4,1,1
6,0.607171,2,0,86,4,9,1,1
6,0.662733,1,1,1,1,9,3,2
6,0.659329,2,0,67,2,11,1,1
6,0.824592,1,0,27,3,9,0,2
6,0.726888,2,0,133,4,3,3,2
6,0.577662,1,1,110,2,1,3,2
6,0.762599,1,0,122,3,4,1,1
6,0.745518,1,0,105,1,2,1,1
6,0.811149,1,0,107,1,2,2,2
6,0.505024,2,0,140,4,3,2,2
6,0.516753,1,0,57,1,11,1,1
6,0.86182,2,0,14,2,9,2,2
6,0.744814,2,0,41,4,10,2,2
6,0.562383,2,0,73,3,9,1,1
6,0.738784,2,0,97,1,2,2,2
6,0.579662,2,0,69,2,11,1,1
6,0.667067,2,0,72,2,12,1,1
6,0.654952,2,0,119,2,1,3,2
6,0.652955,1,0,4,1,10,0,2
6,0.530581,1,0,90,4,10,1,1
6,0.580194,2,0,135,4,3,1,1
6,1.375865,2,1,117,2,1,2,2
6,0.872207,2,0,19,2,11,0,2
6,1.628409,2,0,76,3,10,1,1
6,0.610836,2,0,127,3,4,1,1
6,0.5544,2,0,78,3,10,1,1
6,0.546079,1,0,5,1,10,1,1
6,0.875626,1,1,91,4,11,1,1
6,0.904087,1,0,66,2,10,1,1
6,0.643639,2,0,53,1,10,1,1
6,0.840653,2,0,114,2,1,3,2
6,0.646383,1,0,120,2,1,1,1
6,0.900007,2,0,56,1,11,1,1
6,0.535831,2,0,124,3,4,2,2
6,0.569316,1,0,81,3,11,1,1
6,0.761845,1,0,35,3,12,1,1
6,0.586742,1,0,80,3,11,1,1
6,0.72243,1,0,139,4,3,2,2
6,0.549069,1,0,136,4,3,3,2
6,1.17451,2,0,30,3,10,0,2
6,0.766812,1,0,70,2,12,1,1
6,0.72745,1,0,130,3,4,1,1
6,0.473381,1,0,12,1,12,0,2
6,0.76635,1,0,46,4,12,3,2
6,0.637803,2,0,48,4,12,0,2
6,0.83645,2,0,8,1,11,0,2
6,0.537104,2,0,71,2,12,1,1
6,0.530595,2,0,65,2,10,1,1
6,0.724723,2,0,34,3,12,1,1
6,0.871715,1,0,18,2,10,0,2
6,0.572676,1,1,54,1,10,1,1
6,0.532386,2,0,144,4,3,2,2
6,0.789953,2,0,28,3,10,1,1
6,0.797528,2,0,121,3,4,3,2
6,0.781758,1,0,64,2,10,1,1
6,0.59771,1,0,23,2,12,2,2
6,0.443892,1,0,26,3,9,0,2
6,1.04233,2,0,99,1,2,3,2
6,0.511865,1,0,43,4,11,1,1
6,0.546752,2,0,38,4,9,1,1
6,0.94065,1,0,108,1,2,3,2
6,0.870406,1,0,96,4,12,1,1
6,0.7302,2,0,29,3,10,2,2
6,0.956885,1,0,93,4,11,1,1
6,0.812992,1,0,142,4,3,3,2
6,0.852243,2,0,77,3,10,1,1
6,0.552564,2,0,126,3,4,2,2
6,0.978376,2,0,55,1,11,1,1
6,0.738362,1,0,75,3,9,1,1
6,0.660736,1,0,102,1,2,1,1
6,0.816371,2,0,92,4,11,1,1
6,0.64009,2,0,94,4,12,1,1
6,0.582112,1,0,62,2,9,1,1
6,0.517384,1,0,52,1,10,1,1
6,0.536124,1,0,84,3,12,1,1
6,0.81774,2,0,125,3,4,2,2
6,0.809304,1,0,79,3,11,1,1
6,0.639991,1,0,13,2,9,0,2
6,0.877131,1,0,36,3,12,3,2
6,0.888597,2,0,115,2,1,1,1
6,0.988526,2,0,17,2,10,3,2
6,0.820581,1,0,9,1,11,1,1
6,1.211347,2,0,24,2,12,1,1
6,0.697176,1,0,15,2,9,0,2
6,1.084011,2,0,20,2,11,1,1
6,0.648872,1,0,129,3,4,3,2
6,0.749887,2,0,39,4,9,0,2
6,0.622787,1,0,31,3,11,1,1
6,0.726134,1,0,111,2,1,1,1
6,0.456696,1,0,98,1,2,2,2
6,0.557347,1,0,132,3,4,3,2
6,0.527307,2,0,95,4,12,1,1
6,1.20859,2,0,101,1,2,3,2
6,0.703098,1,0,15,2,9,0,2
6,0.75542,2,0,68,2,11,1,1
6,0.497625,2,1,111,2,1,1,1
6,0.516548,1,1,24,2,12,1,1
6,0.807608,2,0,32,3,11,0,2
6,0.503102,1,0,61,2,9,1,1
6,0.545592,1,0,89,4,10,1,1
6,0.809915,2,0,1,1,9,3,2
6,0.89755,1,0,40,4,10,1,1
6,0.532863,1,0,60,1,12,1,1
6,0.566623,1,0,63,2,9,1,1
6,0.735533,2,0,37,4,9,2,2
6,0.481621,1,1,101,1,2,3,2
6,0.557373,2,0,29,3,10,2,2
6,1.424402,2,0,21,2,11,3,2
6,0.580632,2,0,135,4,3,1,1
6,0.604063,1,0,117,2,1,2,2
6,0.755516,2,0,86,4,9,1,1
6,0.669281,1,1,72,2,12,1,1
6,0.552908,2,0,126,3,4,2,2
6,0.53025,2,0,38,4,9,1,1
6,0.516753,2,0,97,1,2,2,2
6,0.534559,1,0,120,2,1,1,1
6,0.664027,2,0,54,1,10,1,1
6,0.684925,2,0,65,2,10,1,1
6,0.568994,2,0,71,2,12,1,1
6,0.537209,2,0,127,3,4,1,1
6,0.66779,2,0,110,2,1,3,2
6,0.462976,2,0,138,4,3,2,2
6,0.571169,2,0,103,1,2,1,1
6,0.891391,2,1,107,1,2,2,2
6,0.974731,1,0,129,3,4,3,2
6,0.774684,1,0,9,1,11,1,1
6,0.566824,1,0,131,3,4,3,2
6,0.975642,1,1,106,1,2,1,1
6,0.752425,1,0,33,3,11,3,2
6,0.98536,1,0,87,4,9,1,1
6,0.792766,2,0,56,1,11,1,1
6,0.673237,2,0,2,1,9,3,2
6,0.837158,1,0,93,4,11,1,1
6,0.706936,1,0,84,3,12,1,1
6,0.662084,2,0,41,4,10,2,2
6,0.618275,1,0,58,1,12,1,1
6,1.169926,2,0,140,4,3,2,2
6,0.649871,2,0,124,3,4,2,2
6,0.761118,2,0,73,3,9,1,1
6,0.399453,2,0,116,2,1,2,2
6,0.582521,2,0,100,1,2,3,2
6,0.55048,2,0,144,4,3,2,2
6,0.670842,1,0,64,2,10,1,1
6,0.707249,1,0,96,4,12,1,1
6,1.230374,2,0,50,1,9,1,1
6,0.515644,2,0,92,4,11,1,1
6,0.439653,2,0,17,2,10,3,2
6,0.509174,1,0,134,4,3,1,1
6,1.03067,1,0,66,2,10,1,1
6,0.588516,2,0,99,1,2,3,2
6,0.580796,1,0,104,1,2,2,2
6,0.572338,1,1,53,1,10,1,1
6,0.581481,1,0,22,2,12,1,1
6,0.501458,1,0,31,3,11,1,1
6,0.519945,1,0,130,3,4,1,1
6,0.427113,2,0,128,3,4,1,1
6,0.84097,1,0,79,3,11,1,1
6,0.566386,1,0,132,3,4,3,2
6,0.566539,2,0,114,2,1,3,2
6,0.583294,1,0,16,2,10,1,1
6,0.671374,2,0,8,1,11,0,2
6,0.804539,1,0,112,2,1,2,2
6,0.850476,1,0,23,2,12,2,2
6,1.023552,2,0,82,3,12,1,1
6,0.973475,1,0,42,4,10,0,2
6,0.530176,1,0,5,1,10,1,1
6,0.715929,1,0,70,2,12,1,1
6,0.502945,2,0,121,3,4,3,2
6,0.696824,1,0,57,1,11,1,1
6,0.507799,1,0,85,4,9,1,1
6,0.710887,1,0,46,4,12,3,2
6,0.577846,2,0,77,3,10,1,1
6,0.57672,1,0,12,1,12,0,2
6,2.168497,2,0,74,3,9,1,1
6,0.73585,1,0,26,3,9,0,2
6,0.56122,1,0,43,4,11,1,1
6,0.538011,1,0,143,4,3,1,1
6,0.523073,2,0,76,3,10,1,1
6,0.574287,2,0,109,2,1,1,1
6,0.622336,2,0,59,1,12,1,1
6,0.453762,1,0,123,3,4,2,2
6,0.418164,1,0,136,4,3,3,2
6,0.512256,2,0,3,1,9,1,1
6,0.737875,1,0,18,2,10,0,2
6,0.59629,1,0,113,2,1,3,2
6,0.819505,2,1,13,2,9,0,2
6,1.586115,2,0,25,3,9,2,2
6,0.689456,2,0,95,4,12,1,1
6,0.597397,1,0,4,1,10,0,2
6,0.500743,1,1,94,4,12,1,1
6,0.599379,1,1,30,3,10,0,2
6,0.775161,1,0,52,1,10,1,1
6,0.525296,2,0,48,4,12,0,2
6,1.016766,2,0,19,2,11,0,2
6,0.838327,1,0,36,3,12,3,2
6,0.940114,2,0,88,4,10,1,1
6,0.821326,1,0,81,3,11,1,1
6,0.796143,2,0,91,4,11,1,1
6,0.776058,1,0,102,1,2,1,1
6,0.695003,2,1,139,4,3,2,2
6,0.792992,1,0,35,3,12,1,1
6,0.91253,2,0,141,4,3,1,1
6,0.497027,1,0,80,3,11,1,1
6,0.500295,2,0,14,2,9,2,2
6,0.743519,2,0,119,2,1,3,2
6,0.617163,1,0,83,3,12,1,1
6,0.597648,1,0,122,3,4,1,1
6,0.549933,1,0,27,3,9,0,2
6,0.549771,2,1,51,1,9,1,1
6,0.614813,2,0,133,4,3,3,2
6,0.756937,2,0,67,2,11,1,1
6,0.53365,2,0,78,3,10,1,1
6,0.463041,2,0,6,1,10,1,1
6,0.480532,2,0,34,3,12,1,1
6,0.836334,1,0,98,1,2,2,2
6,0.698968,1,0,44,4,11,3,2
6,0.517906,1,0,62,2,9,1,1
6,0.544133,2,0,45,4,11,1,1
6,0.704844,2,0,55,1,11,1,1
6,0.589967,1,0,105,1,2,1,1
6,0.587907,1,0,142,4,3,3,2
6,0.429339,1,0,90,4,10,1,1
6,0.632504,2,0,20,2,11,1,1
6,0.582412,2,0,28,3,10,1,1
6,0.910255,2,0,39,4,9,0,2
6,0.809391,1,0,10,1,12,0,2
6,0.72858,1,0,137,4,3,3,2
6,0.626609,1,1,125,3,4,2,2
6,0.625586,1,0,118,2,1,2,2
6,0.439577,1,0,47,4,12,0,2
6,0.613482,1,0,49,1,9,1,1
6,0.890143,2,0,11,1,12,2,2
6,0.910591,1,0,7,1,11,2,2
6,0.665073,1,0,108,1,2,3,2
6,0.596379,2,0,115,2,1,1,1
6,0.756542,2,0,69,2,11,1,1
6,0.539889,2,1,75,3,9,1,1
7,1.434034,1,0,100,1,2,1,1
7,1.071782,2,0,73,3,9,1,1
7,0.835587,1,0,36,3,12,1,1
7,0.784508,2,0,126,3,4,1,1
7,1.592749,2,0,6,1,10,1,1
7,0.928234,2,0,46,4,12,1,1
7,1.450021,2,0,21,2,11,1,1
7,1.343592,1,0,90,4,10,0,2
7,1.081663,1,0,123,3,4,1,1
7,1.021493,2,0,71,2,12,1,1
7,1.436199,1,0,88,4,10,3,2
7,1.042239,1,0,96,4,12,1,1
7,0.911615,2,0,55,1,11,3,2
7,0.714354,2,0,81,3,11,0,2
7,0.749301,1,0,135,4,3,2,2
7,0.861934,1,0,94,4,12,1,1
7,0.922502,1,0,128,3,4,2,2
7,0.72454,2,0,61,2,9,3,2
7,1.030361,2,0,137,4,3,3,2
7,0.692615,1,0,42,4,10,1,1
7,0.839596,2,0,72,2,12,2,2
7,0.765998,2,0,5,1,10,1,1
7,0.678231,1,0,44,4,11,1,1
7,0.954781,1,0,58,1,12,2,2
7,0.652165,1,0,121,3,4,1,1
7,0.640876,2,0,10,1,12,1,1
7,0.83158,2,0,80,3,11,2,2
7,0.901009,1,0,111,2,1,2,2
7,0.848347,1,0,64,2,10,1,1
7,0.756649,1,0,18,2,10,1,1
7,0.893503,1,0,74,3,9,1,1
7,0.896832,2,0,112,2,1,3,2
7,0.756215,1,0,17,2,10,1,1
7,0.8534,1,0,109,2,1,1,1
7,1.506954,1,0,11,1,12,1,1
7,0.813579,2,0,24,2,12,1,1
7,0.716074,2,0,1,1,9,1,1
7,0.590683,2,0,67,2,11,0,2
7,0.942696,1,0,131,3,4,3,2
7,0.719054,2,0,9,1,11,1,1
7,0.914685,2,0,76,3,10,3,2
7,1.260376,1,0,59,1,12,1,1
7,0.728706,1,0,14,2,9,1,1
7,0.626303,2,0,15,2,9,1,1
7,0.75152,2,0,77,3,10,2,2
7,0.633417,1,0,16,2,10,1,1
7,0.687128,1,0,37,4,9,1,1
7,0.650325,2,0,102,1,2,3,2
7,0.56636,2,0,104,1,2,1,1
7,0.847003,1,0,70,2,12,0,2
7,0.660328,2,0,139,4,3,1,1
7,0.689959,2,0,52,1,10,1,1
7,0.596748,2,0,20,2,11,1,1
7,0.684126,2,0,41,4,10,1,1
7,0.952203,2,0,129,3,4,2,2
7,0.841054,2,0,23,2,12,1,1
7,0.82218,2,0,136,4,3,2,2
7,1.308035,2,0,69,2,11,3,2
7,0.535304,2,0,22,2,12,1,1
7,0.896673,2,0,53,1,10,3,2
7,0.580233,2,0,68,2,11,1,1
7,1.251931,2,0,29,3,10,1,1
7,0.713807,1,0,120,2,1,2,2
7,0.684057,1,0,83,3,12,0,2
7,1.167589,1,0,106,1,2,2,2
7,0.66346,2,0,119,2,1,1,1
7,0.868201,1,0,25,3,9,1,1
7,0.905303,2,0,50,1,9,1,1
7,0.715483,1,0,54,1,10,0,2
7,0.854462,1,0,66,2,10,2,2
7,1.570839,1,0,92,4,11,0,2
7,0.634762,1,0,8,1,11,1,1
7,2.588391,1,0,32,3,11,1,1
7,0.716432,2,0,142,4,3,2,2
7,0.622741,1,0,47,4,12,1,1
7,0.588866,1,0,30,3,10,1,1
7,0.835817,1,0,82,3,12,0,2
7,0.498237,2,0,28,3,10,1,1
7,0.62136,1,0,39,4,9,1,1
7,0.579401,2,0,75,3,9,1,1
7,0.85879,1,0,101,1,2,2,2
7,0.919663,2,0,93,4,11,2,2
7,0.737899,2,0,35,3,12,1,1
7,0.946729,1,0,78,3,10,3,2
7,0.859562,1,0,117,2,1,2,2
7,0.816695,1,0,124,3,4,3,2
7,0.74259,1,0,84,3,12,0,2
7,0.608346,2,0,87,4,9,2,2
7,0.664063,1,0,13,2,9,1,1
7,0.763549,1,0,141,4,3,3,2
7,0.636038,1,0,12,1,12,1,1
7,0.545506,1,0,65,2,10,1,1
7,0.595919,1,0,98,1,2,2,2
7,0.650172,1,0,122,3,4,3,2
7,0.71072,2,0,125,3,4,2,2
7,0.73681,2,0,115,2,1,3,2
7,0.635195,2,0,130,3,4,2,2
7,0.503948,1,0,79,3,11,1,1
7,0.570377,1,0,27,3,9,1,1
7,1.106466,1,0,60,1,12,0,2
7,0.685666,1,0,33,3,11,1,1
7,0.593483,2,0,118,2,1,2,2
7,0.583977,2,0,38,4,9,1,1
7,0.59929,2,0,110,2,1,1,1
7,0.807146,2,0,107,1,2,2,2
7,0.533534,2,0,127,3,4,1,1
7,0.599589,2,0,99,1,2,1,1
7,0.527226,2,0,3,1,9,1,1
7,0.593554,2,0,56,1,11,2,2
7,0.656602,1,0,144,4,3,1,1
7,0.517992,2,0,31,3,11,1,1
7,0.648041,1,0,40,4,10,1,1
7,0.491842,2,0,34,3,12,1,1
7,0.720472,2,0,113,2,1,3,2
7,0.761897,1,0,62,2,9,0,2
7,0.500214,2,0,45,4,11,1,1
7,0.623212,1,0,51,1,9,1,1
7,0.51813,1,0,2,1,9,1,1
7,0.792121,2,0,91,4,11,3,2
7,0.656123,2,0,43,4,11,1,1
7,0.669453,1,0,19,2,11,1,1
7,0.722526,2,0,132,3,4,3,2
7,0.636044,1,0,63,2,9,0,2
7,0.633478,2,0,95,4,12,0,2
7,0.757692,1,0,97,1,2,3,2
7,0.567221,2,0,85,4,9,1,1
7,0.767906,2,0,26,3,9,1,1
7,0.784243,2,0,103,1,2,3,2
7,0.663537,2,0,86,4,9,1,1
7,0.522987,1,0,134,4,3,1,1
7,0.589322,1,0,108,1,2,1,1
7,0.596449,2,0,49,1,9,0,2
7,0.747389,2,0,105,1,2,3,2
7,0.62886,2,0,140,4,3,1,1
7,0.803884,2,0,133,4,3,2,2
7,0.506268,1,0,114,2,1,1,1
7,0.653567,1,0,143,4,3,3,2
7,0.666106,1,0,57,1,11,0,2
7,0.685842,1,0,138,4,3,3,2
7,0.545375,2,0,48,4,12,1,1
7,0.746763,1,0,116,2,1,3,2
7,0.627013,1,0,89,4,10,0,2
7,0.665854,1,0,7,1,11,1,1
7,0.830733,1,0,4,1,10,1,1
7,0.956878,1,0,124,3,4,3,2
7,0.622626,2,0,118,2,1,2,2
7,0.508211,1,0,8,1,11,1,1
7,0.679135,2,0,72,2,12,2,2
7,0.602564,1,0,40,4,10,1,1
7,0.697853,2,0,105,1,2,3,2
7,0.541551,1,0,12,1,12,1,1
7,0.838227,1,0,92,4,11,0,2
7,0.756172,1,0,39,4,9,1,1
7,0.684843,1,0,44,4,11,1,1
7,0.585351,1,0,27,3,9,1,1
7,0.601247,2,0,45,4,11,1,1
7,0.559264,1,0,13,2,9,1,1
7,0.600919,1,0,101,1,2,2,2
7,0.686941,2,0,91,4,11,3,2
7,0.611358,1,0,74,3,9,1,1
7,0.640505,2,0,139,4,3,1,1
7,0.62158,1,0,89,4,10,0,2
7,0.867756,1,0,60,1,12,0,2
7,0.535975,1,1,28,3,10,1,1
7,1.233036,2,0,49,1,9,0,2
7,0.59882,1,0,128,3,4,2,2
7,0.557739,1,0,18,2,10,1,1
7,0.861812,2,0,38,4,9,1,1
7,0.673395,2,0,86,4,9,1,1
7,0.511202,2,0,56,1,11,2,2
7,0.761641,1,0,47,4,12,1,1
7,0.611635,2,0,119,2,1,1,1
7,0.698558,1,0,63,2,9,0,2
7,0.765108,2,0,24,2,12,1,1
7,0.525627,2,0,50,1,9,1,1
7,0.638817,2,0,21,2,11,1,1
7,0.748185,2,0,107,1,2,2,2
7,0.573314,2,0,142,4,3,2,2
7,0.620414,1,0,141,4,3,3,2
7,0.771809,2,0,61,2,9,3,2
7,0.611679,1,0,106,1,2,2,2
7,0.530257,1,0,16,2,10,1,1
7,0.676445,2,0,133,4,3,2,2
7,0.76034,2,0,5,1,10,1,1
7,0.617511,1,0,33,3,11,1,1
7,0.663386,1,0,143,4,3,3,2
7,0.860376,2,0,69,2,11,3,2
7,0.944997,2,0,67,2,11,0,2
7,0.49696,1,0,88,4,10,3,2
7,0.56372,2,0,10,1,12,1,1
7,0.755909,2,0,115,2,1,3,2
7,0.619763,1,0,117,2,1,2,2
7,0.514356,2,0,3,1,9,1,1
7,0.80452,1,0,58,1,12,2,2
7,0.515345,1,0,25,3,9,1,1
7,0.701197,1,0,11,1,12,1,1
7,0.519959,2,0,46,4,12,1,1
7,0.449641,1,0,14,2,9,1,1
7,0.566787,2,0,55,1,11,3,2
7,0.678787,1,0,82,3,12,0,2
7,0.64953,2,0,77,3,10,2,2
7,0.647418,1,0,62,2,9,0,2
7,0.452362,1,0,144,4,3,1,1
7,0.512443,2,0,140,4,3,1,1
7,0.803719,2,0,130,3,4,2,2
7,0.834379,1,1,137,4,3,3,2
7,1.023102,1,0,17,2,10,1,1
7,0.676384,2,0,125,3,4,2,2
7,0.825344,1,0,57,1,11,0,2
7,0.574918,1,0,114,2,1,1,1
7,0.57128,2,0,48,4,12,1,1
7,0.514331,1,0,109,2,1,1,1
7,0.740687,1,0,116,2,1,3,2
7,0.549926,1,0,123,3,4,1,1
7,0.551297,1,0,32,3,11,1,1
7,0.559021,1,0,100,1,2,1,1
7,1.284454,1,0,96,4,12,1,1
7,0.599368,2,0,1,1,9,1,1
7,0.662703,1,0,2,1,9,1,1
7,1.08216,1,0,131,3,4,3,2
7,0.629444,2,0,112,2,1,3,2
7,0.538975,1,0,84,3,12,0,2
7,0.55651,1,0,54,1,10,0,2
7,0.550235,1,0,83,3,12,0,2
7,0.574861,2,0,81,3,11,0,2
7,0.590546,2,0,68,2,11,1,1
7,0.630182,1,0,135,4,3,2,2
7,0.611352,1,0,65,2,10,1,1
7,0.721574,2,0,103,1,2,3,2
7,0.476385,1,0,51,1,9,1,1
7,0.648583,2,0,76,3,10,3,2
7,0.629455,2,0,95,4,12,0,2
7,0.618112,2,0,9,1,11,1,1
7,0.680708,2,0,71,2,12,1,1
7,0.451969,2,0,99,1,2,1,1
7,0.599353,2,0,53,1,10,3,2
7,0.670377,2,0,113,2,1,3,2
7,0.546409,2,0,52,1,10,1,1
7,0.803024,1,0,78,3,10,3,2
7,0.577876,2,0,102,1,2,3,2
7,0.528751,2,0,129,3,4,2,2
7,0.506739,2,0,26,3,9,1,1
7,0.509532,2,0,43,4,11,1,1
7,0.519909,2,0,35,3,12,1,1
7,0.514574,2,0,29,3,10,1,1
7,0.556612,2,0,22,2,12,1,1
7,0.477446,2,0,127,3,4,1,1
7,0.689856,2,0,15,2,9,1,1
7,1.388742,1,0,111,2,1,2,2
7,0.948157,2,0,80,3,11,2,2
7,0.64502,2,0,73,3,9,1,1
7,0.559181,2,0,31,3,11,1,1
7,0.472473,2,0,126,3,4,1,1
7,0.54775,2,0,104,1,2,1,1
7,0.494142,2,0,75,3,9,1,1
7,0.568388,2,0,23,2,12,1,1
7,0.640851,1,0,64,2,10,1,1
7,0.501681,1,0,30,3,10,1,1
7,0.480189,1,0,134,4,3,1,1
7,0.691352,2,0,136,4,3,2,2
7,0.582325,1,0,122,3,4,3,2
7,0.534981,1,0,108,1,2,1,1
7,0.560065,2,0,20,2,11,1,1
7,0.536456,2,0,41,4,10,1,1
7,0.450355,1,0,42,4,10,1,1
7,0.718908,1,0,70,2,12,0,2
7,0.615988,2,0,110,2,1,1,1
7,0.654627,2,0,87,4,9,2,2
7,0.731038,1,0,98,1,2,2,2
7,0.541056,1,0,138,4,3,3,2
7,0.614493,1,0,97,1,2,3,2
7,0.724687,1,0,120,2,1,2,2
7,0.502214,1,0,36,3,12,1,1
7,0.792134,2,0,85,4,9,1,1
7,0.632301,1,0,90,4,10,0,2
7,0.4297,1,0,66,2,10,2,2
7,0.451308,1,0,121,3,4,1,1
7,0.799516,2,0,132,3,4,3,2
7,0.591501,1,0,7,1,11,1,1
7,0.414104,1,0,59,1,12,1,1
7,0.372794,1,0,94,4,12,1,1
7,0.677255,2,0,6,1,10,1,1
7,0.513552,2,0,34,3,12,1,1
7,0.652236,1,0,4,1,10,1,1
7,0.464396,1,0,19,2,11,1,1
7,0.62919,2,0,93,4,11,2,2
7,0.57836,1,0,37,4,9,1,1
7,0.498099,1,0,79,3,11,1,1
7,0.648901,1,0,84,3,12,0,2
7,0.534205,2,0,28,3,10,1,1
7,0.847462,1,0,128,3,4,2,2
7,0.563919,1,0,30,3,10,1,1
7,0.844116,2,0,80,3,11,2,2
7,0.648965,1,0,33,3,11,1,1
7,1.005982,1,0,106,1,2,2,2
7,0.564144,2,0,107,1,2,2,2
7,0.73246,2,0,132,3,4,3,2
7,0.645525,1,1,137,4,3,3,2
7,0.729917,2,0,1,1,9,1,1
7,0.787152,2,0,95,4,12,0,2
7,0.682808,1,0,14,2,9,1,1
7,0.670077,2,0,99,1,2,1,1
7,0.92957,2,0,105,1,2,3,2
7,0.739191,1,0,66,2,10,2,2
7,0.908899,2,0,15,2,9,1,1
7,0.614601,1,0,63,2,9,0,2
7,0.549468,1,0,40,4,10,1,1
7,0.998234,1,0,58,1,12,2,2
7,0.780584,2,0,52,1,10,1,1
7,0.580101,1,0,36,3,12,1,1
7,0.619954,1,0,39,4,9,1,1
7,0.545006,1,0,47,4,12,1,1
7,0.514072,1,0,134,4,3,1,1
7,0.628413,1,0,4,1,10,1,1
7,0.874229,2,0,50,1,9,1,1
7,0.573873,2,0,104,1,2,1,1
7,0.550509,1,0,8,1,11,1,1
7,0.750855,2,0,102,1,2,3,2
7,0.663074,1,0,111,2,1,2,2
7,0.643838,2,0,81,3,11,0,2
7,0.576689,2,0,85,4,9,1,1
7,0.424865,1,0,96,4,12,1,1
7,0.807253,2,0,61,2,9,3,2
7,0.438286,1,0,94,4,12,1,1
7,0.620434,2,0,75,3,9,1,1
7,0.70532,2,0,72,2,12,2,2
7,0.693169,2,0,118,2,1,2,2
7,0.760567,1,0,116,2,1,3,2
7,0.704773,1,0,88,4,10,3,2
7,0.515331,1,0,79,3,11,1,1
7,0.621118,2,0,126,3,4,1,1
7,0.612149,2,0,5,1,10,1,1
7,0.601243,1,0,54,1,10,0,2
7,0.72028,1,0,51,1,9,1,1
7,0.530679,1,0,44,4,11,1,1
7,0.652038,2,0,6,1,10,1,1
7,0.608496,1,0,101,1,2,2,2
7,0.50307,1,0,12,1,12,1,1
7,0.705421,1,0,27,3,9,1,1
7,0.740435,1,0,122,3,4,3,2
7,0.589529,2,0,139,4,3,1,1
7,0.588978,2,0,130,3,4,2,2
7,0.572164,2,0,21,2,11,1,1
7,0.452362,1,0,144,4,3,1,1
7,0.640525,1,0,135,4,3,2,2
7,0.486458,2,0,110,2,1,1,1
7,0.522383,2,0,77,3,10,2,2
7,0.524545,2,0,10,1,12,1,1
7,0.606346,1,0,11,1,12,1,1
7,0.637424,1,0,120,2,1,2,2
7,0.658771,2,0,53,1,10,3,2
7,0.567176,1,0,138,4,3,3,2
7,0.606787,2,0,125,3,4,2,2
7,0.389979,1,0,108,1,2,1,1
7,0.477103,1,0,59,1,12,1,1
7,1.01679,2,0,113,2,1,3,2
7,0.646541,1,0,131,3,4,3,2
7,1.131632,1,0,74,3,9,1,1
7,0.524655,2,0,20,2,11,1,1
7,0.790625,2,0,56,1,11,2,2
7,0.655649,2,0,133,4,3,2,2
7,0.571992,2,0,26,3,9,1,1
7,0.748158,1,0,57,1,11,0,2
7,0.612221,2,0,112,2,1,3,2
7,0.675202,2,0,45,4,11,1,1
7,0.966869,2,0,76,3,10,3,2
7,0.598029,2,0,87,4,9,2,2
7,0.557151,1,0,70,2,12,0,2
7,0.66223,2,0,22,2,12,1,1
7,0.633258,1,0,62,2,9,0,2
7,0.598935,2,0,48,4,12,1,1
7,0.509067,2,0,9,1,11,1,1
7,0.823686,1,0,42,4,10,1,1
7,0.462123,2,0,119,2,1,1,1
7,0.562756,1,0,2,1,9,1,1
7,0.490204,1,0,109,2,1,1,1
7,0.605997,2,0,73,3,9,1,1
7,0.404746,1,0,100,1,2,1,1
7,0.698839,2,0,91,4,11,3,2
7,0.645718,2,0,142,4,3,2,2
7,0.738271,1,0,78,3,10,3,2
7,0.603185,2,0,49,1,9,0,2
7,0.857307,1,0,18,2,10,1,1
7,0.550604,1,0,64,2,10,1,1
7,0.462609,2,0,43,4,11,1,1
7,0.771373,1,0,97,1,2,3,2
7,0.794524,1,0,143,4,3,3,2
7,0.586032,1,0,89,4,10,0,2
7,0.529787,1,0,65,2,10,1,1
7,0.627058,2,0,67,2,11,0,2
7,0.696602,2,0,115,2,1,3,2
7,0.443142,1,0,121,3,4,1,1
7,0.639998,2,0,129,3,4,2,2
7,0.621229,2,0,93,4,11,2,2
7,0.603201,2,0,140,4,3,1,1
7,0.6585,1,0,98,1,2,2,2
7,0.502916,1,0,124,3,4,3,2
7,0.425068,1,0,37,4,9,1,1
7,0.655202,2,0,31,3,11,1,1
7,0.531365,2,0,24,2,12,1,1
7,0.332948,1,0,16,2,10,1,1
7,0.606289,2,0,3,1,9,1,1
7,0.41329,1,0,123,3,4,1,1
7,0.460092,1,0,17,2,10,1,1
7,0.608816,2,0,23,2,12,1,1
7,0.727528,1,0,90,4,10,0,2
7,0.512746,2,0,35,3,12,1,1
7,0.579808,1,1,103,1,2,3,2
7,0.650923,2,0,46,4,12,1,1
7,1.142576,2,0,55,1,11,3,2
7,0.561266,2,0,86,4,9,1,1
7,0.544626,2,0,29,3,10,1,1
7,0.442131,1,0,114,2,1,1,1
7,1.119667,1,0,141,4,3,3,2
7,0.577224,2,0,127,3,4,1,1
7,0.64059,2,0,34,3,12,1,1
7,0.718684,1,0,13,2,9,1,1
7,0.544489,1,0,19,2,11,1,1
7,0.641374,1,0,83,3,12,0,2
7,0.518798,2,0,41,4,10,1,1
7,1.345509,1,0,117,2,1,2,2
7,0.490024,2,0,68,2,11,1,1
7,0.78139,2,0,136,4,3,2,2
7,0.548823,2,0,71,2,12,1,1
7,0.469199,1,0,25,3,9,1,1
7,0.62529,1,0,92,4,11,0,2
7,0.407257,1,0,7,1,11,1,1
7,0.397436,2,0,38,4,9,1,1
7,0.781353,1,0,60,1,12,0,2
7,0.435911,1,0,32,3,11,1,1
7,0.985506,2,0,69,2,11,3,2
7,0.656364,1,0,82,3,12,0,2
8,0.94995,2,0,73,3,9,1,1
8,0.711813,2,0,113,2,1,1,1
8,0.611125,2,0,121,3,4,3,2
8,0.863162,2,0,7,1,11,1,1
8,0.60524,2,0,53,1,10,1,1
8,0.765034,1,0,39,4,9,3,2
8,0.61504,1,0,84,3,12,1,1
8,0.774339,1,0,102,1,2,2,2
8,0.775485,2,0,83,3,12,1,1
8,0.528319,2,0,95,4,12,1,1
8,0.570442,2,0,75,3,9,1,1
8,0.788262,1,0,30,3,10,0,2
8,0.48493,2,0,103,1,2,2,2
8,0.432427,2,1,89,4,10,1,1
8,0.822146,2,0,134,4,3,1,1
8,0.932646,1,0,15,2,9,2,2
8,0.832045,2,0,120,2,1,3,2
8,0.62889,2,0,38,4,9,2,2
8,0.676177,1,0,62,2,9,1,1
8,0.95375,1,0,123,3,4,2,2
8,0.691267,2,0,94,4,12,1,1
8,0.583686,2,0,137,4,3,2,2
8,0.647887,2,1,109,2,1,2,2
8,0.581457,2,1,119,2,1,3,2
8,0.662848,1,0,132,3,4,3,2
8,0.548257,1,0,87,4,9,1,1
8,0.661895,2,0,4,1,10,0,2
8,0.643397,1,0,24,2,12,2,2
8,0.689277,2,0,36,3,12,1,1
8,0.78251,2,0,127,3,4,2,2
8,0.959683,2,0,115,2,1,1,1
8,0.705076,2,1,55,1,11,1,1
8,0.612889,2,0,90,4,10,1,1
8,0.82096,2,0,77,3,10,1,1
8,0.651002,1,0,107,1,2,2,2
8,0.601149,1,0,96,4,12,1,1
8,0.520629,1,0,6,1,10,2,2
8,0.684093,2,1,12,1,12,0,2
8,0.68927,2,1,136,4,3,2,2
8,0.589018,2,0,58,1,12,1,1
8,0.710167,1,0,140,4,3,1,1
8,0.560663,2,0,128,3,4,1,1
8,0.611187,2,0,23,2,12,0,2
8,0.545768,2,0,110,2,1,3,2
8,0.627633,1,0,98,1,2,1,1
8,0.465956,2,0,144,4,3,2,2
8,0.639558,1,0,131,3,4,1,1
8,0.565825,2,0,67,2,11,1,1
8,0.48775,2,0,37,4,9,0,2
8,0.644129,2,0,59,1,12,1,1
8,0.545636,1,0,81,3,11,1,1
8,0.587661,2,0,138,4,3,2,2
8,0.563573,2,1,79,3,11,1,1
8,0.700295,1,0,111,2,1,1,1
8,0.576553,2,0,122,3,4,2,2
8,0.930046,1,0,5,1,10,3,2
8,0.48465,2,0,133,4,3,3,2
8,0.487944,2,0,17,2,10,0,2
8,0.629388,1,0,28,3,10,1,1
8,1.068085,1,0,112,2,1,2,2
8,0.472676,2,0,48,4,12,0,2
8,0.485955,2,0,27,3,9,1,1
8,0.722718,2,0,99,1,2,3,2
8,0.797522,1,0,20,2,11,3,2
8,0.812919,2,0,101,1,2,3,2
8,0.628172,2,0,47,4,12,0,2
8,0.881863,1,0,86,4,9,1,1
8,0.655323,1,0,135,4,3,3,2
8,0.733125,1,0,10,1,12,1,1
8,1.311865,1,0,106,1,2,3,2
8,0.554483,1,0,33,3,11,3,2
8,0.732923,2,0,82,3,12,1,1
8,0.657078,2,0,142,4,3,1,1
8,0.543912,1,0,66,2,10,1,1
8,0.52154,1,1,85,4,9,1,1
8,0.707839,1,0,60,1,12,1,1
8,0.800164,1,0,54,1,10,1,1
8,0.576765,2,0,25,3,9,0,2
8,0.617594,1,0,26,3,9,1,1
8,0.624447,1,0,31,3,11,3,2
8,0.53511,1,0,42,4,10,3,2
8,0.585117,2,0,100,1,2,1,1
8,0.609316,1,0,43,4,11,1,1
8,0.504767,2,0,50,1,9,1,1
8,0.893252,2,0,117,2,1,3,2
8,0.841538,2,0,11,1,12,3,2
8,0.640211,2,0,29,3,10,0,2
8,0.534805,2,0,46,4,12,1,1
8,0.816999,1,0,44,4,11,1,1
8,0.52836,1,0,93,4,11,1,1
8,0.52331,2,0,40,4,10,1,1
8,0.486731,2,0,16,2,10,1,1
8,1.114148,1,0,130,3,4,3,2
8,0.565081,2,0,52,1,10,1,1
8,0.486237,1,0,104,1,2,1,1
8,0.546792,2,0,125,3,4,1,1
8,0.548587,1,0,141,4,3,1,1
8,0.493609,2,0,92,4,11,1,1
8,1.058614,1,0,124,3,4,3,2
8,0.56694,2,1,116,2,1,2,2
8,0.745047,2,0,8,1,11,0,2
8,0.795236,1,0,78,3,10,1,1
8,0.602417,2,0,14,2,9,0,2
8,0.546195,2,0,114,2,1,2,2
8,0.475727,1,1,2,1,9,1,1
8,0.616866,2,0,22,2,12,1,1
8,0.464298,2,0,65,2,10,1,1
8,0.485014,2,0,88,4,10,1,1
8,1.394362,1,0,49,1,9,1,1
8,0.514016,2,0,51,1,9,1,1
8,0.717113,1,0,139,4,3,3,2
8,0.560676,2,0,32,3,11,0,2
8,0.546807,2,0,9,1,11,0,2
8,0.716447,1,0,74,3,9,1,1
8,0.664107,1,0,45,4,11,0,2
8,0.59689,1,0,61,2,9,1,1
8,0.516481,1,0,118,2,1,1,1
8,0.606913,1,0,13,2,9,0,2
8,0.495909,2,0,19,2,11,3,2
8,0.698848,1,0,126,3,4,1,1
8,0.492588,1,0,57,1,11,1,1
8,0.44774,2,0,70,2,12,1,1
8,0.573368,1,0,63,2,9,1,1
8,0.518779,1,0,91,4,11,1,1
8,0.519996,1,0,69,2,11,1,1
8,0.515651,1,0,143,4,3,3,2
8,0.589897,1,0,21,2,11,1,1
8,0.559544,1,0,18,2,10,1,1
8,0.489054,1,0,76,3,10,1,1
8,0.86845,2,0,129,3,4,2,2
8,0.786818,1,0,108,1,2,2,2
8,0.698463,1,0,41,4,10,2,2
8,0.590339,2,0,97,1,2,3,2
8,0.711651,1,0,3,1,9,2,2
8,0.554469,2,0,105,1,2,1,1
8,0.668646,1,0,1,1,9,1,1
8,0.570195,1,0,56,1,11,1,1
8,0.506971,2,0,72,2,12,1,1
8,0.895391,2,0,34,3,12,2,2
8,0.643281,2,0,68,2,11,1,1
8,1.128887,1,0,35,3,12,2,2
8,0.564388,2,0,80,3,11,1,1
8,0.516855,2,1,64,2,10,1,1
8,0.672367,2,0,71,2,12,1,1
8,0.659637,1,0,111,2,1,1,1
8,0.753575,1,0,143,4,3,3,2
8,0.810919,1,0,139,4,3,3,2
8,0.512457,1,0,55,1,11,1,1
8,0.619059,2,1,6,1,10,2,2
8,0.658613,2,0,38,4,9,2,2
8,0.670268,1,0,91,4,11,1,1
8,0.594131,2,0,101,1,2,3,2
8,0.730773,2,0,144,4,3,2,2
8,0.707148,1,0,78,3,10,1,1
8,0.646183,2,0,97,1,2,3,2
8,0.579523,2,0,32,3,11,0,2
8,0.532713,1,0,87,4,9,1,1
8,0.622605,1,0,123,3,4,2,2
8,0.549275,1,0,140,4,3,1,1
8,0.581275,2,0,80,3,11,1,1
8,0.541215,1,0,130,3,4,3,2
8,0.472887,1,0,64,2,10,1,1
8,0.564672,2,0,99,1,2,3,2
8,0.733314,1,0,79,3,11,1,1
8,0.864333,2,0,103,1,2,2,2
8,0.461374,1,0,119,2,1,3,2
8,0.505476,2,0,90,4,10,1,1
8,0.478655,1,0,84,3,12,1,1
8,0.506438,2,0,46,4,12,1,1
8,0.869288,1,0,3,1,9,2,2
8,0.633814,1,0,136,4,3,2,2
8,0.448338,2,0,113,2,1,1,1
8,0.693524,1,0,12,1,12,0,2
8,0.46565,2,0,121,3,4,3,2
8,0.534452,1,0,39,4,9,3,2
8,0.441094,2,0,71,2,12,1,1
8,0.511001,2,0,37,4,9,0,2
8,0.609923,2,0,7,1,11,1,1
8,0.585406,1,0,62,2,9,1,1
8,0.585421,1,1,110,2,1,3,2
8,1.057256,2,0,53,1,10,1,1
8,0.527825,2,0,23,2,12,0,2
8,0.68241,1,0,24,2,12,2,2
8,0.959179,2,0,117,2,1,3,2
8,0.944613,1,0,21,2,11,1,1
8,0.731459,2,0,138,4,3,2,2
8,0.540747,1,0,35,3,12,2,2
8,1.296268,1,0,106,1,2,3,2
8,0.489044,1,0,126,3,4,1,1
8,0.446113,2,0,58,1,12,1,1
8,0.499739,2,0,65,2,10,1,1
8,0.415911,2,0,70,2,12,1,1
8,0.605681,1,1,40,4,10,1,1
8,0.589962,1,0,44,4,11,1,1
8,0.558279,1,0,131,3,4,1,1
8,0.592397,2,0,85,4,9,1,1
8,0.488964,2,0,128,3,4,1,1
8,0.548916,1,0,1,1,9,1,1
8,0.790146,1,0,42,4,10,3,2
8,0.686956,2,0,137,4,3,2,2
8,0.499469,2,0,27,3,9,1,1
8,0.631839,1,0,116,2,1,2,2
8,0.509393,2,0,122,3,4,2,2
8,0.401363,2,0,100,1,2,1,1
8,0.905521,1,0,41,4,10,2,2
8,0.892749,1,0,15,2,9,2,2
8,1.192252,2,1,81,3,11,1,1
8,0.705186,1,0,33,3,11,3,2
8,0.525313,1,0,118,2,1,1,1
8,0.432942,2,0,75,3,9,1,1
8,0.887678,2,0,19,2,11,3,2
8,0.587104,2,0,115,2,1,1,1
8,0.683713,1,0,132,3,4,3,2
8,0.50461,2,0,82,3,12,1,1
8,1.051653,1,0,49,1,9,1,1
8,0.553851,2,0,83,3,12,1,1
8,0.688368,1,0,69,2,11,1,1
8,0.780211,2,0,4,1,10,0,2
8,0.653906,1,0,60,1,12,1,1
8,0.634738,1,0,45,4,11,0,2
8,0.689018,2,0,14,2,9,0,2
8,0.469712,2,0,52,1,10,1,1
8,0.571075,2,0,88,4,10,1,1
8,0.436117,2,0,142,4,3,1,1
8,0.522077,2,0,22,2,12,1,1
8,0.653373,1,0,93,4,11,1,1
8,0.587347,1,0,54,1,10,1,1
8,0.643075,1,0,124,3,4,3,2
8,0.7064,2,0,127,3,4,2,2
8,0.50182,2,0,36,3,12,1,1
8,0.55437,1,0,63,2,9,1,1
8,1.690961,2,0,114,2,1,2,2
8,0.719745,1,0,109,2,1,2,2
8,0.650223,1,1,29,3,10,0,2
8,0.73634,2,0,17,2,10,0,2
8,0.482724,2,0,105,1,2,1,1
8,0.726449,2,1,20,2,11,3,2
8,0.577737,1,0,74,3,9,1,1
8,0.578592,1,0,135,4,3,3,2
8,0.62701,1,0,5,1,10,3,2
8,0.49808,2,0,95,4,12,1,1
8,0.494134,2,1,66,2,10,1,1
8,0.587307,2,0,59,1,12,1,1
8,0.546891,1,0,102,1,2,2,2
8,0.548805,2,0,68,2,11,1,1
8,0.734822,2,0,67,2,11,1,1
8,0.529503,1,0,104,1,2,1,1
8,0.71518,1,0,43,4,11,1,1
8,0.767274,2,0,120,2,1,3,2
8,0.518599,1,0,76,3,10,1,1
8,0.673712,2,1,112,2,1,2,2
8,0.600101,2,0,51,1,9,1,1
8,0.935075,2,0,50,1,9,1,1
8,0.530286,1,0,10,1,12,1,1
8,0.605538,2,0,94,4,12,1,1
8,0.493189,2,0,72,2,12,1,1
8,0.713849,2,0,73,3,9,1,1
8,0.573552,2,0,129,3,4,2,2
8,0.55745,2,0,48,4,12,0,2
8,0.704119,2,0,47,4,12,0,2
8,0.476066,2,0,125,3,4,1,1
8,0.504303,1,0,98,1,2,1,1
8,0.772016,2,0,133,4,3,3,2
8,0.573858,2,0,11,1,12,3,2
8,0.670293,2,0,34,3,12,2,2
8,0.651271,1,0,30,3,10,0,2
8,0.505373,2,0,134,4,3,1,1
8,0.48523,2,0,77,3,10,1,1
8,0.71458,2,0,25,3,9,0,2
8,0.54059,1,0,141,4,3,1,1
8,0.566484,1,0,61,2,9,1,1
8,0.687678,2,0,9,1,11,0,2
8,0.620363,1,0,26,3,9,1,1
8,0.538502,1,0,57,1,11,1,1
8,0.437349,2,0,2,1,9,1,1
8,0.547619,1,0,56,1,11,1,1
8,0.733099,1,0,108,1,2,2,2
8,0.50361,2,0,16,2,10,1,1
8,0.603628,2,0,8,1,11,0,2
8,0.634864,1,0,28,3,10,1,1
8,0.60113,1,0,13,2,9,0,2
8,0.721409,1,0,31,3,11,3,2
8,0.564498,1,0,96,4,12,1,1
8,0.781558,1,0,107,1,2,2,2
8,0.493795,1,0,89,4,10,1,1
8,0.529998,1,0,18,2,10,1,1
8,0.701303,2,0,92,4,11,1,1
8,0.62451,1,0,86,4,9,1,1
8,0.573621,1,0,116,2,1,2,2
8,0.477468,1,0,132,3,4,3,2
8,0.499234,1,1,110,2,1,3,2
8,0.486495,1,0,118,2,1,1,1
8,0.762586,2,0,117,2,1,3,2
8,0.547174,2,0,77,3,10,1,1
8,0.706532,1,0,15,2,9,2,2
8,0.518378,2,0,16,2,10,1,1
8,0.577133,2,0,68,2,11,1,1
8,0.738447,1,0,108,1,2,2,2
8,0.724896,2,0,25,3,9,0,2
8,0.518973,1,0,43,4,11,1,1
8,0.498037,2,0,70,2,12,1,1
8,0.74889,2,0,52,1,10,1,1
8,0.622663,1,0,69,2,11,1,1
8,0.557546,1,0,61,2,9,1,1
8,0.590478,1,0,35,3,12,2,2
8,0.608231,1,0,39,4,9,3,2
8,0.454091,2,0,113,2,1,1,1
8,0.476693,2,0,40,4,10,1,1
8,0.473847,1,0,44,4,11,1,1
8,0.486401,2,0,82,3,12,1,1
8,0.403774,2,0,75,3,9,1,1
8,0.507163,1,0,62,2,9,1,1
8,0.878529,1,0,112,2,1,2,2
8,0.538921,2,0,103,1,2,2,2
8,1.324459,1,0,31,3,11,3,2
8,0.479063,2,0,29,3,10,0,2
8,0.547752,2,0,72,2,12,1,1
8,0.590064,1,0,28,3,10,1,1
8,0.454215,2,0,80,3,11,1,1
8,0.540082,1,0,140,4,3,1,1
8,0.437716,2,0,58,1,12,1,1
8,0.651865,2,0,50,1,9,1,1
8,0.5303,2,0,8,1,11,0,2
8,0.548689,1,0,42,4,10,3,2
8,0.422607,2,0,142,4,3,1,1
8,0.501379,2,0,138,4,3,2,2
8,0.561041,2,0,48,4,12,0,2
8,0.642232,1,0,30,3,10,0,2
8,0.61706,1,0,6,1,10,2,2
8,0.584631,1,0,123,3,4,2,2
8,0.526333,2,0,37,4,9,0,2
8,0.601966,1,0,20,2,11,3,2
8,0.618661,1,0,109,2,1,2,2
8,0.426074,2,0,51,1,9,1,1
8,0.614228,1,0,111,2,1,1,1
8,0.485125,2,0,4,1,10,0,2
8,0.513488,2,0,14,2,9,0,2
8,0.508414,1,0,74,3,9,1,1
8,0.816331,2,0,99,1,2,3,2
8,0.671543,1,0,54,1,10,1,1
8,0.964325,1,0,107,1,2,2,2
8,0.676262,1,0,63,2,9,1,1
8,0.544191,1,0,135,4,3,3,2
8,0.570476,2,0,46,4,12,1,1
8,0.499893,2,0,125,3,4,1,1
8,0.511952,2,0,122,3,4,2,2
8,0.50628,1,0,93,4,11,1,1
8,0.43113,2,0,65,2,10,1,1
8,0.613855,1,0,86,4,9,1,1
8,0.685113,2,0,137,4,3,2,2
8,0.76076,1,0,5,1,10,3,2
8,0.713908,1,0,102,1,2,2,2
8,0.548776,1,0,66,2,10,1,1
8,0.550794,2,0,11,1,12,3,2
8,0.481006,1,0,87,4,9,1,1
8,0.541079,1,0,119,2,1,3,2
8,0.479809,1,0,57,1,11,1,1
8,0.628815,2,0,23,2,12,0,2
8,0.467545,2,0,128,3,4,1,1
8,0.583792,1,0,136,4,3,2,2
8,0.560681,1,0,33,3,11,3,2
8,0.545779,2,0,59,1,12,1,1
8,0.484033,1,0,130,3,4,3,2
8,0.839547,1,0,41,4,10,2,2
8,0.701643,2,0,127,3,4,2,2
8,0.48113,2,0,2,1,9,1,1
8,0.573548,1,0,79,3,11,1,1
8,0.422841,2,0,53,1,10,1,1
8,0.66153,1,0,12,1,12,0,2
8,1.035223,1,0,106,1,2,3,2
8,0.553759,2,0,71,2,12,1,1
8,0.450731,1,0,84,3,12,1,1
8,0.63287,1,0,1,1,9,1,1
8,0.790567,1,0,45,4,11,0,2
8,0.519488,2,0,94,4,12,1,1
8,0.514822,1,0,81,3,11,1,1
8,0.821829,1,0,124,3,4,3,2
8,0.613763,2,0,47,4,12,0,2
8,0.483856,1,0,104,1,2,1,1
8,0.560772,1,0,13,2,9,0,2
8,0.457833,2,0,22,2,12,1,1
8,0.543684,1,0,24,2,12,2,2
8,0.665674,2,0,129,3,4,2,2
8,0.510982,1,0,21,2,11,1,1
8,0.610273,2,0,95,4,12,1,1
8,0.632241,1,0,26,3,9,1,1
8,0.615798,2,0,120,2,1,3,2
8,0.83097,1,0,3,1,9,2,2
8,0.485554,2,0,115,2,1,1,1
8,0.578021,2,0,32,3,11,0,2
8,0.514329,2,0,9,1,11,0,2
8,0.597657,1,0,91,4,11,1,1
8,0.701444,2,0,34,3,12,2,2
8,0.496872,1,0,131,3,4,1,1
8,0.540777,1,0,76,3,10,1,1
8,0.559615,1,0,139,4,3,3,2
8,0.545122,2,0,97,1,2,3,2
8,0.507738,2,0,92,4,11,1,1
8,0.598514,2,0,19,2,11,3,2
8,0.557847,1,0,56,1,11,1,1
8,0.519654,2,0,67,2,11,1,1
8,0.480714,1,0,98,1,2,1,1
8,0.388586,2,0,27,3,9,1,1
8,0.620997,1,0,64,2,10,1,1
8,0.411577,2,0,83,3,12,1,1
8,0.587958,1,0,49,1,9,1,1
8,0.475933,1,0,10,1,12,1,1
8,0.471522,2,0,36,3,12,1,1
8,0.605075,1,1,17,2,10,0,2
8,0.637686,2,0,101,1,2,3,2
8,0.540056,2,0,134,4,3,1,1
8,0.582253,2,0,144,4,3,2,2
8,0.726611,1,0,96,4,12,1,1
8,0.55393,2,0,121,3,4,3,2
8,0.524495,1,0,18,2,10,1,1
8,0.502449,2,0,105,1,2,1,1
8,0.563144,1,0,141,4,3,1,1
8,0.499414,1,0,89,4,10,1,1
8,0.485625,2,0,114,2,1,2,2
8,0.666351,2,0,85,4,9,1,1
8,0.479642,2,0,90,4,10,1,1
8,0.42824,2,0,73,3,9,1,1
8,0.483254,2,0,7,1,11,1,1
8,0.566219,2,0,133,4,3,3,2
8,0.551694,1,0,143,4,3,3,2
8,0.417613,2,0,88,4,10,1,1
8,0.471868,1,0,60,1,12,1,1
8,0.509489,2,0,100,1,2,1,1
8,0.409488,1,0,55,1,11,1,1
8,0.75339,2,0,38,4,9,2,2
8,0.546831,1,0,126,3,4,1,1
8,0.612717,1,0,78,3,10,1,1
9,1.619058,1,0,111,2,1,3,2
9,1.113701,2,0,11,1,12,1,1
9,0.795569,1,0,137,4,3,1,1
9,1.002544,1,0,15,2,9,1,1
9,0.761907,2,0,94,4,12,1,1
9,0.625561,1,0,110,2,1,1,1
9,0.767347,1,0,23,2,12,1,1
9,1.151973,2,0,125,3,4,3,2
9,0.904435,1,0,131,3,4,1,1
9,1.123468,2,0,16,2,10,1,1
9,1.029189,1,1,69,2,11,2,2
9,0.866636,2,0,112,2,1,1,1
9,0.718279,1,0,129,3,4,1,1
9,1.272037,2,0,143,4,3,3,2
9,0.956035,2,0,96,4,12,0,2
9,0.852975,1,0,73,3,9,2,2
9,0.705671,2,0,27,3,9,1,1
9,0.932507,2,0,103,1,2,3,2
9,0.677563,2,0,12,1,12,1,1
9,0.817158,1,0,81,3,11,1,1
9,0.719644,1,0,30,3,10,1,1
9,0.704915,2,0,42,4,10,1,1
9,0.572107,2,0,84,3,12,1,1
9,0.658986,2,0,40,4,10,1,1
9,0.664627,2,0,9,1,11,1,1
9,1.363399,2,0,64,2,10,0,2
9,0.892593,2,0,106,1,2,2,2
9,0.70381,1,0,25,3,9,1,1
9,1.185673,1,0,71,2,12,3,2
9,0.961213,2,0,57,1,11,0,2
9,0.849766,2,0,139,4,3,3,2
9,0.846127,1,0,93,4,11,2,2
9,0.62665,1,0,48,4,12,1,1
9,0.920774,1,0,99,1,2,3,2
9,0.889786,2,0,76,3,10,3,2
9,0.590655,2,0,21,2,11,1,1
9,0.469789,1,0,17,2,10,1,1
9,0.544895,2,0,44,4,11,1,1
9,0.986172,1,0,4,1,10,1,1
9,0.841541,1,0,92,4,11,1,1
9,0.654969,2,0,33,3,11,1,1
9,0.564474,2,0,74,3,9,1,1
9,0.956412,1,0,80,3,11,2,2
9,1.060861,1,0,130,3,4,3,2
9,0.825412,1,0,85,4,9,2,2
9,0.592474,2,0,97,1,2,1,1
9,0.743313,1,0,105,1,2,1,1
9,0.776088,2,0,100,1,2,1,1
9,0.807881,1,0,10,1,12,1,1
9,1.007491,1,0,20,2,11,1,1
9,0.76503,1,0,141,4,3,2,2
9,1.285841,2,0,51,1,9,1,1
9,0.721156,2,0,19,2,11,1,1
9,1.307168,1,1,53,1,10,2,2
9,0.732895,1,0,47,4,12,1,1
9,1.022977,1,0,127,3,4,2,2
9,0.63684,1,0,107,1,2,3,2
9,0.993899,2,0,26,3,9,1,1
9,0.537037,1,0,38,4,9,1,1
9,1.13033,2,0,101,1,2,2,2
9,0.771889,1,0,122,3,4,2,2
9,0.683788,2,0,72,2,12,1,1
9,0.814852,1,0,132,3,4,2,2
9,0.933379,1,0,50,1,9,0,2
9,0.85429,2,0,133,4,3,2,2
9,0.786671,2,0,8,1,11,1,1
9,1.194197,2,0,102,1,2,2,2
9,0.833771,2,0,45,4,11,1,1
9,0.806899,2,0,66,2,10,0,2
9,0.837483,1,0,52,1,10,3,2
9,0.667135,2,0,136,4,3,1,1
9,0.806485,1,0,77,3,10,0,2
9,0.559275,1,0,43,4,11,1,1
9,0.894857,1,0,49,1,9,2,2
9,0.658792,2,0,39,4,9,1,1
9,0.799464,1,0,83,3,12,3,2
9,0.701904,2,0,134,4,3,1,1
9,0.720776,1,0,7,1,11,1,1
9,0.618448,1,0,46,4,12,1,1
9,0.608257,1,0,32,3,11,1,1
9,0.60682,1,0,24,2,12,1,1
9,0.838161,2,0,117,2,1,3,2
9,0.6115,1,0,119,2,1,1,1
9,0.737704,2,0,116,2,1,2,2
9,0.60352,2,0,121,3,4,1,1
9,0.745604,2,0,56,1,11,1,1
9,0.995257,1,0,67,2,11,0,2
9,0.784199,1,0,78,3,10,1,1
9,0.59964,1,0,108,1,2,3,2
9,0.854189,1,0,62,2,9,2,2
9,0.802997,2,0,88,4,10,3,2
9,0.58558,2,0,13,2,9,1,1
9,0.632823,2,0,75,3,9,0,2
9,0.589827,2,0,31,3,11,1,1
9,0.501619,1,0,36,3,12,1,1
9,0.62366,1,0,1,1,9,1,1
9,0.573464,2,0,3,1,9,1,1
9,0.614348,1,0,28,3,10,1,1
9,0.812475,2,0,124,3,4,3,2
9,0.850752,1,0,98,1,2,2,2
9,1.214968,2,0,89,4,10,0,2
9,0.997134,1,0,144,4,3,3,2
9,1.075284,1,0,142,4,3,2,2
9,0.903282,1,1,128,3,4,1,1
9,0.770369,1,0,54,1,10,3,2
9,0.594124,2,0,29,3,10,1,1
9,0.841653,2,0,95,4,12,0,2
9,0.622818,1,0,41,4,10,1,1
9,0.620772,1,0,90,4,10,1,1
9,0.562466,1,0,59,1,12,1,1
9,0.642779,2,0,120,2,1,1,1
9,0.648263,1,0,5,1,10,1,1
9,0.716828,1,0,61,2,9,1,1
9,1.023073,1,0,113,2,1,3,2
9,0.884872,1,0,140,4,3,2,2
9,0.513171,2,0,58,1,12,0,2
9,0.713979,1,0,114,2,1,2,2
9,0.516866,1,0,14,2,9,1,1
9,0.446896,2,0,6,1,10,1,1
9,0.771695,2,0,115,2,1,2,2
9,0.890868,2,0,82,3,12,0,2
9,0.557137,2,0,63,2,9,1,1
9,1.094542,2,0,109,2,1,2,2
9,0.969677,2,0,126,3,4,3,2
9,0.79379,1,0,87,4,9,0,2
9,0.713514,2,0,79,3,11,0,2
9,0.586542,1,0,68,2,11,1,1
9,0.586086,1,0,118,2,1,3,2
9,0.650062,1,0,60,1,12,1,1
9,0.526242,1,0,2,1,9,1,1
9,0.63186,2,0,86,4,9,1,1
9,0.82171,1,0,91,4,11,3,2
9,0.859306,2,0,37,4,9,1,1
9,0.496004,1,0,34,3,12,1,1
9,0.72237,2,0,123,3,4,2,2
9,0.644865,2,0,35,3,12,1,1
9,0.810419,2,0,70,2,12,0,2
9,0.777289,1,0,65,2,10,3,2
9,0.769204,2,0,55,1,11,0,2
9,0.649056,2,0,22,2,12,1,1
9,0.477802,1,0,135,4,3,1,1
9,0.72164,2,0,18,2,10,1,1
9,0.755481,1,0,104,1,2,1,1
9,0.90041,2,0,138,4,3,3,2
9,0.751927,2,0,19,2,11,1,1
9,0.632129,2,0,35,3,12,1,1
9,0.789713,1,0,62,2,9,2,2
9,0.50868,1,0,10,1,12,1,1
9,0.82357,1,0,50,1,9,0,2
9,0.573703,2,0,56,1,11,1,1
9,1.085193,2,0,64,2,10,0,2
9,0.727965,1,0,78,3,10,1,1
9,0.593176,2,0,39,4,9,1,1
9,0.697117,1,0,80,3,11,2,2
9,0.547001,2,0,37,4,9,1,1
9,0.604127,2,0,72,2,12,1,1
9,0.707268,1,0,122,3,4,2,2
9,0.573396,2,0,12,1,12,1,1
9,0.605924,2,0,51,1,9,1,1
9,0.532102,1,0,137,4,3,1,1
9,0.844673,2,0,103,1,2,3,2
9,0.595053,2,0,100,1,2,1,1
9,1.081433,2,0,66,2,10,0,2
9,0.612865,1,0,113,2,1,3,2
9,0.546543,2,0,26,3,9,1,1
9,0.43432,1,0,135,4,3,1,1
9,0.49641,1,0,105,1,2,1,1
9,0.698821,1,0,73,3,9,2,2
9,1.061665,1,0,98,1,2,2,2
9,0.585302,1,0,99,1,2,3,2
9,0.447922,1,0,104,1,2,1,1
9,0.628804,2,0,27,3,9,1,1
9,0.458089,1,0,25,3,9,1,1
9,1.039238,2,0,76,3,10,3,2
9,0.547704,1,0,141,4,3,2,2
9,0.484721,2,0,84,3,12,1,1
9,0.904025,2,0,139,4,3,3,2
9,0.578305,2,0,31,3,11,1,1
9,0.562058,1,0,92,4,11,1,1
9,0.68152,1,0,54,1,10,3,2
9,0.709121,1,0,52,1,10,3,2
9,0.551107,1,0,28,3,10,1,1
9,0.456429,2,0,134,4,3,1,1
9,0.620734,2,0,9,1,11,1,1
9,0.643223,1,0,17,2,10,1,1
9,0.952122,2,0,88,4,10,3,2
9,0.889264,1,0,91,4,11,3,2
9,0.891936,1,0,108,1,2,3,2
9,0.655242,2,0,18,2,10,1,1
9,0.627941,2,0,42,4,10,1,1
9,0.75452,1,0,81,3,11,1,1
9,0.818377,2,0,116,2,1,2,2
9,0.673213,2,0,16,2,10,1,1
9,0.78838,1,0,144,4,3,3,2
9,0.699635,2,0,21,2,11,1,1
9,0.846123,2,0,126,3,4,3,2
9,0.63428,2,0,63,2,9,1,1
9,0.592743,2,0,6,1,10,1,1
9,0.575797,1,0,5,1,10,1,1
9,0.991399,2,0,123,3,4,2,2
9,1.126871,1,0,83,3,12,3,2
9,0.608258,2,0,94,4,12,1,1
9,0.727173,2,0,79,3,11,0,2
9,0.577049,1,0,48,4,12,1,1
9,0.808996,1,0,93,4,11,2,2
9,1.463962,1,0,7,1,11,1,1
9,0.508133,1,0,20,2,11,1,1
9,0.502751,1,0,131,3,4,1,1
9,0.704971,1,0,87,4,9,0,2
9,0.491475,2,0,40,4,10,1,1
9,0.8464,2,0,53,1,10,2,2
9,0.515638,1,0,15,2,9,1,1
9,0.516696,2,0,86,4,9,1,1
9,0.871563,2,0,138,4,3,3,2
9,0.667409,1,0,71,2,12,3,2
9,0.591259,2,0,22,2,12,1,1
9,1.068786,2,0,74,3,9,1,1
9,0.513312,1,0,14,2,9,1,1
9,0.666537,2,0,121,3,4,1,1
9,1.014409,2,0,89,4,10,0,2
9,0.75666,1,0,142,4,3,2,2
9,0.982114,2,0,115,2,1,2,2
9,0.685513,1,0,61,2,9,1,1
9,0.673122,2,0,117,2,1,3,2
9,0.620481,2,0,128,3,4,1,1
9,0.75608,2,0,57,1,11,0,2
9,0.772673,1,0,1,1,9,1,1
9,0.878032,1,0,60,1,12,1,1
9,0.681681,2,0,120,2,1,1,1
9,0.829942,1,0,49,1,9,2,2
9,0.827979,1,0,107,1,2,3,2
9,0.778214,2,0,112,2,1,1,1
9,0.586822,1,0,34,3,12,1,1
9,0.681875,1,0,43,4,11,1,1
9,0.605642,2,0,29,3,10,1,1
9,0.772501,1,0,132,3,4,2,2
9,0.653351,1,0,23,2,12,1,1
9,0.537781,2,0,3,1,9,1,1
9,0.796139,2,0,69,2,11,2,2
9,0.563637,1,0,129,3,4,1,1
9,0.588205,1,0,68,2,11,1,1
9,0.580519,1,0,36,3,12,1,1
9,0.772391,1,0,114,2,1,2,2
9,0.859672,2,0,45,4,11,1,1
9,0.568375,2,0,44,4,11,1,1
9,1.041804,2,0,143,4,3,3,2
9,0.814925,1,0,90,4,10,1,1
9,0.780631,2,0,106,1,2,2,2
9,0.732773,1,0,85,4,9,2,2
9,0.717897,1,0,110,2,1,1,1
9,0.912481,1,0,67,2,11,0,2
9,0.618771,2,0,33,3,11,1,1
9,0.585476,2,0,13,2,9,1,1
9,0.560921,1,0,2,1,9,1,1
9,1.129561,2,0,75,3,9,0,2
9,1.235922,2,0,124,3,4,3,2
9,0.672899,1,0,41,4,10,1,1
9,0.621899,2,1,32,3,11,1,1
9,0.635894,2,0,8,1,11,1,1
9,0.641921,1,0,30,3,10,1,1
9,1.189945,2,0,101,1,2,2,2
9,0.717601,2,0,133,4,3,2,2
9,0.935889,1,0,127,3,4,2,2
9,0.594311,2,0,97,1,2,1,1
9,0.777701,2,0,96,4,12,0,2
9,0.761777,2,0,11,1,12,1,1
9,0.634549,1,0,47,4,12,1,1
9,1.055641,1,0,111,2,1,3,2
9,0.765053,2,0,58,1,12,0,2
9,0.948024,1,0,140,4,3,2,2
9,0.757529,1,0,130,3,4,3,2
9,0.76668,1,0,38,4,9,1,1
9,1.0477,1,0,77,3,10,0,2
9,0.732654,1,0,46,4,12,1,1
9,0.606506,1,0,4,1,10,1,1
9,0.949622,2,0,102,1,2,2,2
9,0.806424,2,0,125,3,4,3,2
9,0.926139,1,0,24,2,12,1,1
9,0.727933,2,0,136,4,3,1,1
9,1.225313,2,0,109,2,1,2,2
9,0.790941,1,0,65,2,10,3,2
9,0.838336,2,0,70,2,12,0,2
9,0.972151,2,0,82,3,12,0,2
9,0.988176,2,0,55,1,11,0,2
9,3.748156,1,0,119,2,1,1,1
9,0.772967,1,0,118,2,1,3,2
9,0.549525,1,0,59,1,12,1,1
9,0.830276,2,0,95,4,12,0,2
9,1.218435,2,0,134,4,3,1,1
9,1.001675,2,0,106,1,2,2,2
9,0.824101,1,0,142,4,3,2,2
9,0.765851,1,0,5,1,10,1,1
9,0.518374,1,0,23,2,12,1,1
9,0.776648,1,0,15,2,9,1,1
9,0.792662,2,0,96,4,12,0,2
